subject,age,gender,block,value_option0,value_option1,uncertainty,trial,reward,RT,choice,forced,mask,horizon
1001.0,26,0,0,40,32,1,0,51,-99.0,0,1,1,1
1001.0,26,0,0,40,32,1,1,47,-99.0,1,1,1,1
1001.0,26,0,0,40,32,1,2,33,-99.0,1,1,1,1
1001.0,26,0,0,40,32,1,3,18,-99.0,1,1,1,1
1001.0,26,0,0,40,32,1,4,55,0.416998,0,0,0,1
1001.0,26,0,1,60,48,1,0,52,-99.0,1,1,1,1
1001.0,26,0,1,60,48,1,1,49,-99.0,0,1,1,1
1001.0,26,0,1,60,48,1,2,53,-99.0,1,1,1,1
1001.0,26,0,1,60,48,1,3,44,-99.0,1,1,1,1
1001.0,26,0,1,60,48,1,4,50,0.317264,1,0,0,1
1001.0,26,0,2,40,20,-1,0,49,-99.0,0,1,1,1
1001.0,26,0,2,40,20,-1,1,45,-99.0,0,1,1,1
1001.0,26,0,2,40,20,-1,2,22,-99.0,1,1,1,1
1001.0,26,0,2,40,20,-1,3,28,-99.0,0,1,1,1
1001.0,26,0,2,40,20,-1,4,30,0.383654,0,0,0,1
1001.0,26,0,3,36,40,0,0,32,-99.0,0,1,1,1
1001.0,26,0,3,36,40,0,1,31,-99.0,0,1,1,1
1001.0,26,0,3,36,40,0,2,40,-99.0,1,1,1,1
1001.0,26,0,3,36,40,0,3,21,-99.0,1,1,1,1
1001.0,26,0,3,36,40,0,4,33,1.367162,0,0,0,1
1001.0,26,0,4,60,52,1,0,52,-99.0,1,1,1,1
1001.0,26,0,4,60,52,1,1,46,-99.0,1,1,1,1
1001.0,26,0,4,60,52,1,2,67,-99.0,0,1,1,1
1001.0,26,0,4,60,52,1,3,54,-99.0,1,1,1,1
1001.0,26,0,4,60,52,1,4,56,0.267352,0,0,0,1
1001.0,26,0,5,60,40,0,0,38,-99.0,1,1,1,6
1001.0,26,0,5,60,40,0,1,68,-99.0,0,1,1,6
1001.0,26,0,5,60,40,0,2,56,-99.0,0,1,1,6
1001.0,26,0,5,60,40,0,3,27,-99.0,1,1,1,6
1001.0,26,0,5,60,40,0,4,64,0.251368,0,0,0,6
1001.0,26,0,5,60,40,0,5,62,0.033748,0,0,0,6
1001.0,26,0,5,60,40,0,6,67,0.167445,0,0,0,6
1001.0,26,0,5,60,40,0,7,63,0.183785,0,0,0,6
1001.0,26,0,5,60,40,0,8,55,0.050161,0,0,0,6
1001.0,26,0,5,60,40,0,9,59,0.533782,0,0,0,6
1001.0,26,0,6,40,28,-1,0,35,-99.0,0,1,1,1
1001.0,26,0,6,40,28,-1,1,58,-99.0,0,1,1,1
1001.0,26,0,6,40,28,-1,2,36,-99.0,0,1,1,1
1001.0,26,0,6,40,28,-1,3,28,-99.0,1,1,1,1
1001.0,26,0,6,40,28,-1,4,24,0.333743,0,0,0,1
1001.0,26,0,7,28,40,0,0,30,-99.0,0,1,1,6
1001.0,26,0,7,28,40,0,1,46,-99.0,1,1,1,6
1001.0,26,0,7,28,40,0,2,31,-99.0,0,1,1,6
1001.0,26,0,7,28,40,0,3,48,-99.0,1,1,1,6
1001.0,26,0,7,28,40,0,4,59,0.200994,1,0,0,6
1001.0,26,0,7,28,40,0,5,27,0.167109,1,0,0,6
1001.0,26,0,7,28,40,0,6,33,0.300579,0,0,0,6
1001.0,26,0,7,28,40,0,7,39,0.267117,1,0,0,6
1001.0,26,0,7,28,40,0,8,49,0.151451,1,0,0,6
1001.0,26,0,7,28,40,0,9,31,0.100301,1,0,0,6
1001.0,26,0,8,20,40,0,0,40,-99.0,1,1,1,6
1001.0,26,0,8,20,40,0,1,48,-99.0,1,1,1,6
1001.0,26,0,8,20,40,0,2,20,-99.0,0,1,1,6
1001.0,26,0,8,20,40,0,3,16,-99.0,0,1,1,6
1001.0,26,0,8,20,40,0,4,41,1.418071,1,0,0,6
1001.0,26,0,8,20,40,0,5,16,0.23386,0,0,0,6
1001.0,26,0,8,20,40,0,6,42,0.233534,1,0,0,6
1001.0,26,0,8,20,40,0,7,15,0.067718,1,0,0,6
1001.0,26,0,8,20,40,0,8,17,0.266659,0,0,0,6
1001.0,26,0,8,20,40,0,9,45,0.200654,1,0,0,6
1001.0,26,0,9,40,20,-1,0,40,-99.0,0,1,1,1
1001.0,26,0,9,40,20,-1,1,45,-99.0,0,1,1,1
1001.0,26,0,9,40,20,-1,2,16,-99.0,1,1,1,1
1001.0,26,0,9,40,20,-1,3,30,-99.0,0,1,1,1
1001.0,26,0,9,40,20,-1,4,20,0.234904,1,0,0,1
1001.0,26,0,10,40,32,1,0,49,-99.0,0,1,1,6
1001.0,26,0,10,40,32,1,1,30,-99.0,1,1,1,6
1001.0,26,0,10,40,32,1,2,25,-99.0,1,1,1,6
1001.0,26,0,10,40,32,1,3,32,-99.0,1,1,1,6
1001.0,26,0,10,40,32,1,4,30,0.416526,0,0,0,6
1001.0,26,0,10,40,32,1,5,42,0.301204,0,0,0,6
1001.0,26,0,10,40,32,1,6,36,0.283727,1,0,0,6
1001.0,26,0,10,40,32,1,7,36,0.300571,0,0,0,6
1001.0,26,0,10,40,32,1,8,37,0.167061,1,0,0,6
1001.0,26,0,10,40,32,1,9,36,0.383748,0,0,0,6
1001.0,26,0,11,60,48,0,0,51,-99.0,1,1,1,6
1001.0,26,0,11,60,48,0,1,58,-99.0,0,1,1,6
1001.0,26,0,11,60,48,0,2,65,-99.0,1,1,1,6
1001.0,26,0,11,60,48,0,3,63,-99.0,0,1,1,6
1001.0,26,0,11,60,48,0,4,44,0.349875,1,0,0,6
1001.0,26,0,11,60,48,0,5,64,0.216352,0,0,0,6
1001.0,26,0,11,60,48,0,6,65,0.233595,0,0,0,6
1001.0,26,0,11,60,48,0,7,61,0.050157,0,0,0,6
1001.0,26,0,11,60,48,0,8,56,0.16704,0,0,0,6
1001.0,26,0,11,60,48,0,9,60,0.050535,0,0,0,6
1001.0,26,0,12,28,40,-1,0,34,-99.0,0,1,1,6
1001.0,26,0,12,28,40,-1,1,21,-99.0,0,1,1,6
1001.0,26,0,12,28,40,-1,2,22,-99.0,0,1,1,6
1001.0,26,0,12,28,40,-1,3,35,-99.0,1,1,1,6
1001.0,26,0,12,28,40,-1,4,41,0.68345,1,0,0,6
1001.0,26,0,12,28,40,-1,5,26,0.167491,0,0,0,6
1001.0,26,0,12,28,40,-1,6,33,0.117658,1,0,0,6
1001.0,26,0,12,28,40,-1,7,41,0.150337,0,0,0,6
1001.0,26,0,12,28,40,-1,8,43,0.550194,1,0,0,6
1001.0,26,0,12,28,40,-1,9,48,0.217728,1,0,0,6
1001.0,26,0,13,28,40,0,0,31,-99.0,1,1,1,1
1001.0,26,0,13,28,40,0,1,47,-99.0,1,1,1,1
1001.0,26,0,13,28,40,0,2,19,-99.0,0,1,1,1
1001.0,26,0,13,28,40,0,3,29,-99.0,0,1,1,1
1001.0,26,0,13,28,40,0,4,46,0.533766,1,0,0,1
1001.0,26,0,14,36,40,1,0,44,-99.0,1,1,1,6
1001.0,26,0,14,36,40,1,1,36,-99.0,0,1,1,6
1001.0,26,0,14,36,40,1,2,38,-99.0,1,1,1,6
1001.0,26,0,14,36,40,1,3,35,-99.0,1,1,1,6
1001.0,26,0,14,36,40,1,4,26,0.46679,0,0,0,6
1001.0,26,0,14,36,40,1,5,40,0.283712,1,0,0,6
1001.0,26,0,14,36,40,1,6,47,0.216844,1,0,0,6
1001.0,26,0,14,36,40,1,7,39,0.250625,1,0,0,6
1001.0,26,0,14,36,40,1,8,40,0.366919,1,0,0,6
1001.0,26,0,14,36,40,1,9,44,1.169111,1,0,0,6
1001.0,26,0,15,60,48,1,0,62,-99.0,1,1,1,6
1001.0,26,0,15,60,48,1,1,50,-99.0,1,1,1,6
1001.0,26,0,15,60,48,1,2,36,-99.0,1,1,1,6
1001.0,26,0,15,60,48,1,3,57,-99.0,0,1,1,6
1001.0,26,0,15,60,48,1,4,38,0.300455,1,0,0,6
1001.0,26,0,15,60,48,1,5,66,0.233465,0,0,0,6
1001.0,26,0,15,60,48,1,6,61,0.016689,0,0,0,6
1001.0,26,0,15,60,48,1,7,50,0.217189,0,0,0,6
1001.0,26,0,15,60,48,1,8,54,0.033574,0,0,0,6
1001.0,26,0,15,60,48,1,9,56,0.0841,0,0,0,6
1001.0,26,0,16,36,40,0,0,43,-99.0,0,1,1,6
1001.0,26,0,16,36,40,0,1,30,-99.0,0,1,1,6
1001.0,26,0,16,36,40,0,2,32,-99.0,1,1,1,6
1001.0,26,0,16,36,40,0,3,38,-99.0,1,1,1,6
1001.0,26,0,16,36,40,0,4,46,0.400438,0,0,0,6
1001.0,26,0,16,36,40,0,5,55,0.217164,1,0,0,6
1001.0,26,0,16,36,40,0,6,35,0.183928,0,0,0,6
1001.0,26,0,16,36,40,0,7,39,0.017056,1,0,0,6
1001.0,26,0,16,36,40,0,8,37,0.017206,0,0,0,6
1001.0,26,0,16,36,40,0,9,41,0.016804,1,0,0,6
1001.0,26,0,17,60,52,0,0,56,-99.0,1,1,1,1
1001.0,26,0,17,60,52,0,1,52,-99.0,1,1,1,1
1001.0,26,0,17,60,52,0,2,56,-99.0,0,1,1,1
1001.0,26,0,17,60,52,0,3,55,-99.0,0,1,1,1
1001.0,26,0,17,60,52,0,4,52,0.767408,0,0,0,1
1001.0,26,0,18,60,52,0,0,62,-99.0,0,1,1,6
1001.0,26,0,18,60,52,0,1,45,-99.0,0,1,1,6
1001.0,26,0,18,60,52,0,2,44,-99.0,1,1,1,6
1001.0,26,0,18,60,52,0,3,48,-99.0,1,1,1,6
1001.0,26,0,18,60,52,0,4,65,0.450792,0,0,0,6
1001.0,26,0,18,60,52,0,5,54,0.767277,0,0,0,6
1001.0,26,0,18,60,52,0,6,73,0.567667,0,0,0,6
1001.0,26,0,18,60,52,0,7,62,0.38482,0,0,0,6
1001.0,26,0,18,60,52,0,8,75,0.250482,0,0,0,6
1001.0,26,0,18,60,52,0,9,60,0.48355,0,0,0,6
1001.0,26,0,19,52,60,0,0,51,-99.0,1,1,1,6
1001.0,26,0,19,52,60,0,1,39,-99.0,0,1,1,6
1001.0,26,0,19,52,60,0,2,42,-99.0,0,1,1,6
1001.0,26,0,19,52,60,0,3,32,-99.0,1,1,1,6
1001.0,26,0,19,52,60,0,4,30,0.750079,0,0,0,6
1001.0,26,0,19,52,60,0,5,56,0.200291,1,0,0,6
1001.0,26,0,19,52,60,0,6,50,0.217079,0,0,0,6
1001.0,26,0,19,52,60,0,7,42,0.200617,1,0,0,6
1001.0,26,0,19,52,60,0,8,28,0.133619,0,0,0,6
1001.0,26,0,19,52,60,0,9,24,0.11705,0,0,0,6
1001.0,26,0,20,20,40,-1,0,18,-99.0,0,1,1,6
1001.0,26,0,20,20,40,-1,1,36,-99.0,1,1,1,6
1001.0,26,0,20,20,40,-1,2,24,-99.0,0,1,1,6
1001.0,26,0,20,20,40,-1,3,15,-99.0,0,1,1,6
1001.0,26,0,20,20,40,-1,4,22,0.450398,1,0,0,6
1001.0,26,0,20,20,40,-1,5,33,0.25043,0,0,0,6
1001.0,26,0,20,20,40,-1,6,52,0.217178,1,0,0,6
1001.0,26,0,20,20,40,-1,7,34,0.184053,1,0,0,6
1001.0,26,0,20,20,40,-1,8,53,0.100382,1,0,0,6
1001.0,26,0,20,20,40,-1,9,53,0.10043,1,0,0,6
1001.0,26,0,21,28,40,1,0,44,-99.0,1,1,1,6
1001.0,26,0,21,28,40,1,1,26,-99.0,1,1,1,6
1001.0,26,0,21,28,40,1,2,30,-99.0,0,1,1,6
1001.0,26,0,21,28,40,1,3,36,-99.0,1,1,1,6
1001.0,26,0,21,28,40,1,4,30,0.333661,0,0,0,6
1001.0,26,0,21,28,40,1,5,49,0.233157,1,0,0,6
1001.0,26,0,21,28,40,1,6,34,1.133958,1,0,0,6
1001.0,26,0,21,28,40,1,7,21,0.334824,0,0,0,6
1001.0,26,0,21,28,40,1,8,45,0.183484,1,0,0,6
1001.0,26,0,21,28,40,1,9,37,0.300407,1,0,0,6
1001.0,26,0,22,40,32,0,0,35,-99.0,0,1,1,1
1001.0,26,0,22,40,32,0,1,38,-99.0,1,1,1,1
1001.0,26,0,22,40,32,0,2,36,-99.0,0,1,1,1
1001.0,26,0,22,40,32,0,3,28,-99.0,1,1,1,1
1001.0,26,0,22,40,32,0,4,47,0.217209,0,0,0,1
1001.0,26,0,23,40,60,0,0,35,-99.0,0,1,1,1
1001.0,26,0,23,40,60,0,1,53,-99.0,1,1,1,1
1001.0,26,0,23,40,60,0,2,59,-99.0,1,1,1,1
1001.0,26,0,23,40,60,0,3,24,-99.0,0,1,1,1
1001.0,26,0,23,40,60,0,4,70,0.568393,1,0,0,1
1001.0,26,0,24,60,40,0,0,41,-99.0,1,1,1,1
1001.0,26,0,24,60,40,0,1,58,-99.0,0,1,1,1
1001.0,26,0,24,60,40,0,2,40,-99.0,1,1,1,1
1001.0,26,0,24,60,40,0,3,55,-99.0,0,1,1,1
1001.0,26,0,24,60,40,0,4,58,0.300322,0,0,0,1
1001.0,26,0,25,40,36,0,0,35,-99.0,0,1,1,1
1001.0,26,0,25,40,36,0,1,39,-99.0,1,1,1,1
1001.0,26,0,25,40,36,0,2,50,-99.0,0,1,1,1
1001.0,26,0,25,40,36,0,3,40,-99.0,1,1,1,1
1001.0,26,0,25,40,36,0,4,34,0.300325,0,0,0,1
1001.0,26,0,26,20,40,0,0,23,-99.0,0,1,1,6
1001.0,26,0,26,20,40,0,1,24,-99.0,0,1,1,6
1001.0,26,0,26,20,40,0,2,55,-99.0,1,1,1,6
1001.0,26,0,26,20,40,0,3,38,-99.0,1,1,1,6
1001.0,26,0,26,20,40,0,4,12,0.551249,0,0,0,6
1001.0,26,0,26,20,40,0,5,41,0.217075,1,0,0,6
1001.0,26,0,26,20,40,0,6,13,0.200013,0,0,0,6
1001.0,26,0,26,20,40,0,7,37,0.066913,1,0,0,6
1001.0,26,0,26,20,40,0,8,42,0.117625,1,0,0,6
1001.0,26,0,26,20,40,0,9,37,0.283671,1,0,0,6
1001.0,26,0,27,48,60,0,0,36,-99.0,0,1,1,6
1001.0,26,0,27,48,60,0,1,54,-99.0,0,1,1,6
1001.0,26,0,27,48,60,0,2,54,-99.0,1,1,1,6
1001.0,26,0,27,48,60,0,3,79,-99.0,1,1,1,6
1001.0,26,0,27,48,60,0,4,55,0.400805,1,0,0,6
1001.0,26,0,27,48,60,0,5,52,0.250779,1,0,0,6
1001.0,26,0,27,48,60,0,6,65,0.217116,1,0,0,6
1001.0,26,0,27,48,60,0,7,64,0.266601,1,0,0,6
1001.0,26,0,27,48,60,0,8,64,0.251051,1,0,0,6
1001.0,26,0,27,48,60,0,9,57,0.100557,1,0,0,6
1001.0,26,0,28,56,60,1,0,77,-99.0,1,1,1,1
1001.0,26,0,28,56,60,1,1,41,-99.0,0,1,1,1
1001.0,26,0,28,56,60,1,2,58,-99.0,1,1,1,1
1001.0,26,0,28,56,60,1,3,56,-99.0,1,1,1,1
1001.0,26,0,28,56,60,1,4,60,1.135648,1,0,0,1
1001.0,26,0,29,40,60,-1,0,73,-99.0,1,1,1,1
1001.0,26,0,29,40,60,-1,1,54,-99.0,0,1,1,1
1001.0,26,0,29,40,60,-1,2,29,-99.0,0,1,1,1
1001.0,26,0,29,40,60,-1,3,41,-99.0,0,1,1,1
1001.0,26,0,29,40,60,-1,4,75,0.283794,1,0,0,1
1001.0,26,0,30,40,36,0,0,34,-99.0,1,1,1,6
1001.0,26,0,30,40,36,0,1,44,-99.0,0,1,1,6
1001.0,26,0,30,40,36,0,2,34,-99.0,0,1,1,6
1001.0,26,0,30,40,36,0,3,32,-99.0,1,1,1,6
1001.0,26,0,30,40,36,0,4,37,0.333762,1,0,0,6
1001.0,26,0,30,40,36,0,5,28,0.13386,0,0,0,6
1001.0,26,0,30,40,36,0,6,50,0.200935,1,0,0,6
1001.0,26,0,30,40,36,0,7,33,0.250464,1,0,0,6
1001.0,26,0,30,40,36,0,8,20,0.283382,1,0,0,6
1001.0,26,0,30,40,36,0,9,29,0.417206,1,0,0,6
1001.0,26,0,31,52,60,1,0,57,-99.0,0,1,1,1
1001.0,26,0,31,52,60,1,1,48,-99.0,1,1,1,1
1001.0,26,0,31,52,60,1,2,60,-99.0,1,1,1,1
1001.0,26,0,31,52,60,1,3,64,-99.0,1,1,1,1
1001.0,26,0,31,52,60,1,4,68,1.933726,1,0,0,1
1001.0,26,0,32,32,40,0,0,38,-99.0,0,1,1,1
1001.0,26,0,32,32,40,0,1,39,-99.0,0,1,1,1
1001.0,26,0,32,32,40,0,2,36,-99.0,1,1,1,1
1001.0,26,0,32,32,40,0,3,32,-99.0,1,1,1,1
1001.0,26,0,32,32,40,0,4,30,0.316704,0,0,0,1
1001.0,26,0,33,40,60,-1,0,35,-99.0,0,1,1,6
1001.0,26,0,33,40,60,-1,1,41,-99.0,0,1,1,6
1001.0,26,0,33,40,60,-1,2,65,-99.0,1,1,1,6
1001.0,26,0,33,40,60,-1,3,32,-99.0,0,1,1,6
1001.0,26,0,33,40,60,-1,4,75,0.250917,1,0,0,6
1001.0,26,0,33,40,60,-1,5,60,0.033675,1,0,0,6
1001.0,26,0,33,40,60,-1,6,51,0.017318,1,0,0,6
1001.0,26,0,33,40,60,-1,7,40,0.167144,1,0,0,6
1001.0,26,0,33,40,60,-1,8,66,0.201175,1,0,0,6
1001.0,26,0,33,40,60,-1,9,60,0.033809,1,0,0,6
1001.0,26,0,34,60,48,0,0,74,-99.0,0,1,1,6
1001.0,26,0,34,60,48,0,1,43,-99.0,1,1,1,6
1001.0,26,0,34,60,48,0,2,55,-99.0,1,1,1,6
1001.0,26,0,34,60,48,0,3,59,-99.0,0,1,1,6
1001.0,26,0,34,60,48,0,4,43,0.28489,1,0,0,6
1001.0,26,0,34,60,48,0,5,69,0.18385,0,0,0,6
1001.0,26,0,34,60,48,0,6,55,0.033234,0,0,0,6
1001.0,26,0,34,60,48,0,7,63,0.167294,0,0,0,6
1001.0,26,0,34,60,48,0,8,66,0.217619,0,0,0,6
1001.0,26,0,34,60,48,0,9,48,0.333532,0,0,0,6
1001.0,26,0,35,28,40,0,0,41,-99.0,1,1,1,6
1001.0,26,0,35,28,40,0,1,21,-99.0,0,1,1,6
1001.0,26,0,35,28,40,0,2,20,-99.0,0,1,1,6
1001.0,26,0,35,28,40,0,3,40,-99.0,1,1,1,6
1001.0,26,0,35,28,40,0,4,33,0.451207,0,0,0,6
1001.0,26,0,35,28,40,0,5,41,0.416811,1,0,0,6
1001.0,26,0,35,28,40,0,6,39,0.216752,1,0,0,6
1001.0,26,0,35,28,40,0,7,21,0.083823,0,0,0,6
1001.0,26,0,35,28,40,0,8,38,0.16724,1,0,0,6
1001.0,26,0,35,28,40,0,9,35,0.150542,1,0,0,6
1001.0,26,0,36,56,60,0,0,59,-99.0,1,1,1,1
1001.0,26,0,36,56,60,0,1,57,-99.0,0,1,1,1
1001.0,26,0,36,56,60,0,2,55,-99.0,0,1,1,1
1001.0,26,0,36,56,60,0,3,56,-99.0,1,1,1,1
1001.0,26,0,36,56,60,0,4,74,0.134091,1,0,0,1
1001.0,26,0,37,60,56,0,0,43,-99.0,1,1,1,6
1001.0,26,0,37,60,56,0,1,44,-99.0,0,1,1,6
1001.0,26,0,37,60,56,0,2,52,-99.0,1,1,1,6
1001.0,26,0,37,60,56,0,3,59,-99.0,0,1,1,6
1001.0,26,0,37,60,56,0,4,64,0.183516,0,0,0,6
1001.0,26,0,37,60,56,0,5,64,1.217794,0,0,0,6
1001.0,26,0,37,60,56,0,6,48,0.700122,0,0,0,6
1001.0,26,0,37,60,56,0,7,62,0.317127,0,0,0,6
1001.0,26,0,37,60,56,0,8,64,0.200668,0,0,0,6
1001.0,26,0,37,60,56,0,9,60,0.267868,0,0,0,6
1001.0,26,0,38,20,40,0,0,48,-99.0,1,1,1,6
1001.0,26,0,38,20,40,0,1,13,-99.0,0,1,1,6
1001.0,26,0,38,20,40,0,2,16,-99.0,0,1,1,6
1001.0,26,0,38,20,40,0,3,44,-99.0,1,1,1,6
1001.0,26,0,38,20,40,0,4,36,0.183841,1,0,0,6
1001.0,26,0,38,20,40,0,5,24,0.166732,0,0,0,6
1001.0,26,0,38,20,40,0,6,49,0.167124,1,0,0,6
1001.0,26,0,38,20,40,0,7,36,0.233445,1,0,0,6
1001.0,26,0,38,20,40,0,8,29,0.033259,1,0,0,6
1001.0,26,0,38,20,40,0,9,43,0.216806,1,0,0,6
1001.0,26,0,39,40,20,0,0,42,-99.0,0,1,1,6
1001.0,26,0,39,40,20,0,1,30,-99.0,0,1,1,6
1001.0,26,0,39,40,20,0,2,29,-99.0,1,1,1,6
1001.0,26,0,39,40,20,0,3,3,-99.0,1,1,1,6
1001.0,26,0,39,40,20,0,4,36,0.116793,0,0,0,6
1001.0,26,0,39,40,20,0,5,26,0.235349,0,0,0,6
1001.0,26,0,39,40,20,0,6,26,0.167137,1,0,0,6
1001.0,26,0,39,40,20,0,7,43,0.199685,0,0,0,6
1001.0,26,0,39,40,20,0,8,39,0.150339,0,0,0,6
1001.0,26,0,39,40,20,0,9,41,0.166357,0,0,0,6
1001.0,26,0,40,32,40,1,0,34,-99.0,1,1,1,6
1001.0,26,0,40,32,40,1,1,32,-99.0,1,1,1,6
1001.0,26,0,40,32,40,1,2,37,-99.0,0,1,1,6
1001.0,26,0,40,32,40,1,3,47,-99.0,1,1,1,6
1001.0,26,0,40,32,40,1,4,34,0.333856,0,0,0,6
1001.0,26,0,40,32,40,1,5,41,0.234142,1,0,0,6
1001.0,26,0,40,32,40,1,6,28,0.383798,0,0,0,6
1001.0,26,0,40,32,40,1,7,39,0.216775,1,0,0,6
1001.0,26,0,40,32,40,1,8,40,0.183464,1,0,0,6
1001.0,26,0,40,32,40,1,9,40,0.03462,1,0,0,6
1001.0,26,0,41,40,32,0,0,34,-99.0,1,1,1,6
1001.0,26,0,41,40,32,0,1,38,-99.0,0,1,1,6
1001.0,26,0,41,40,32,0,2,28,-99.0,1,1,1,6
1001.0,26,0,41,40,32,0,3,48,-99.0,0,1,1,6
1001.0,26,0,41,40,32,0,4,44,0.550498,0,0,0,6
1001.0,26,0,41,40,32,0,5,32,0.216733,0,0,0,6
1001.0,26,0,41,40,32,0,6,25,0.100289,1,0,0,6
1001.0,26,0,41,40,32,0,7,42,0.150394,0,0,0,6
1001.0,26,0,41,40,32,0,8,39,0.20039,0,0,0,6
1001.0,26,0,41,40,32,0,9,42,0.167652,0,0,0,6
1001.0,26,0,42,40,36,0,0,50,-99.0,1,1,1,1
1001.0,26,0,42,40,36,0,1,50,-99.0,0,1,1,1
1001.0,26,0,42,40,36,0,2,34,-99.0,0,1,1,1
1001.0,26,0,42,40,36,0,3,36,-99.0,1,1,1,1
1001.0,26,0,42,40,36,0,4,47,0.233884,1,0,0,1
1001.0,26,0,43,40,28,0,0,33,-99.0,1,1,1,1
1001.0,26,0,43,40,28,0,1,53,-99.0,0,1,1,1
1001.0,26,0,43,40,28,0,2,32,-99.0,0,1,1,1
1001.0,26,0,43,40,28,0,3,32,-99.0,1,1,1,1
1001.0,26,0,43,40,28,0,4,41,1.200026,0,0,0,1
1001.0,26,0,44,60,56,1,0,57,-99.0,1,1,1,6
1001.0,26,0,44,60,56,1,1,60,-99.0,1,1,1,6
1001.0,26,0,44,60,56,1,2,47,-99.0,0,1,1,6
1001.0,26,0,44,60,56,1,3,50,-99.0,1,1,1,6
1001.0,26,0,44,60,56,1,4,50,0.300361,1,0,0,6
1001.0,26,0,44,60,56,1,5,63,0.816892,1,0,0,6
1001.0,26,0,44,60,56,1,6,58,0.266764,1,0,0,6
1001.0,26,0,44,60,56,1,7,54,0.383939,1,0,0,6
1001.0,26,0,44,60,56,1,8,55,0.333754,1,0,0,6
1001.0,26,0,44,60,56,1,9,51,0.200909,1,0,0,6
1001.0,26,0,45,40,28,0,0,30,-99.0,1,1,1,6
1001.0,26,0,45,40,28,0,1,30,-99.0,1,1,1,6
1001.0,26,0,45,40,28,0,2,39,-99.0,0,1,1,6
1001.0,26,0,45,40,28,0,3,33,-99.0,0,1,1,6
1001.0,26,0,45,40,28,0,4,32,0.33355,0,0,0,6
1001.0,26,0,45,40,28,0,5,31,0.100501,1,0,0,6
1001.0,26,0,45,40,28,0,6,39,0.050316,0,0,0,6
1001.0,26,0,45,40,28,0,7,33,0.500421,1,0,0,6
1001.0,26,0,45,40,28,0,8,48,0.100335,0,0,0,6
1001.0,26,0,45,40,28,0,9,46,0.133863,0,0,0,6
1001.0,26,0,46,40,20,0,0,41,-99.0,0,1,1,6
1001.0,26,0,46,40,20,0,1,21,-99.0,1,1,1,6
1001.0,26,0,46,40,20,0,2,39,-99.0,0,1,1,6
1001.0,26,0,46,40,20,0,3,18,-99.0,1,1,1,6
1001.0,26,0,46,40,20,0,4,38,0.31705,0,0,0,6
1001.0,26,0,46,40,20,0,5,10,0.28381,1,0,0,6
1001.0,26,0,46,40,20,0,6,41,0.167404,0,0,0,6
1001.0,26,0,46,40,20,0,7,34,0.167381,0,0,0,6
1001.0,26,0,46,40,20,0,8,33,0.550493,0,0,0,6
1001.0,26,0,46,40,20,0,9,50,0.250445,0,0,0,6
1001.0,26,0,47,40,20,0,0,39,-99.0,0,1,1,6
1001.0,26,0,47,40,20,0,1,15,-99.0,1,1,1,6
1001.0,26,0,47,40,20,0,2,35,-99.0,0,1,1,6
1001.0,26,0,47,40,20,0,3,25,-99.0,1,1,1,6
1001.0,26,0,47,40,20,0,4,42,0.234395,0,0,0,6
1001.0,26,0,47,40,20,0,5,36,0.300434,0,0,0,6
1001.0,26,0,47,40,20,0,6,50,0.350513,0,0,0,6
1001.0,26,0,47,40,20,0,7,47,0.534538,0,0,0,6
1001.0,26,0,47,40,20,0,8,43,0.533992,0,0,0,6
1001.0,26,0,47,40,20,0,9,29,0.200568,0,0,0,6
1001.0,26,0,48,48,60,0,0,57,-99.0,1,1,1,6
1001.0,26,0,48,48,60,0,1,34,-99.0,0,1,1,6
1001.0,26,0,48,48,60,0,2,65,-99.0,1,1,1,6
1001.0,26,0,48,48,60,0,3,55,-99.0,0,1,1,6
1001.0,26,0,48,48,60,0,4,49,0.583534,0,0,0,6
1001.0,26,0,48,48,60,0,5,50,0.650418,1,0,0,6
1001.0,26,0,48,48,60,0,6,55,0.234074,0,0,0,6
1001.0,26,0,48,48,60,0,7,60,0.200074,1,0,0,6
1001.0,26,0,48,48,60,0,8,66,0.200096,1,0,0,6
1001.0,26,0,48,48,60,0,9,56,0.200924,1,0,0,6
1001.0,26,0,49,20,40,1,0,35,-99.0,1,1,1,1
1001.0,26,0,49,20,40,1,1,43,-99.0,1,1,1,1
1001.0,26,0,49,20,40,1,2,10,-99.0,0,1,1,1
1001.0,26,0,49,20,40,1,3,50,-99.0,1,1,1,1
1001.0,26,0,49,20,40,1,4,22,0.266901,0,0,0,1
1001.0,26,0,50,40,28,0,0,31,-99.0,1,1,1,6
1001.0,26,0,50,40,28,0,1,38,-99.0,0,1,1,6
1001.0,26,0,50,40,28,0,2,31,-99.0,0,1,1,6
1001.0,26,0,50,40,28,0,3,27,-99.0,1,1,1,6
1001.0,26,0,50,40,28,0,4,43,0.283404,0,0,0,6
1001.0,26,0,50,40,28,0,5,21,0.149936,1,0,0,6
1001.0,26,0,50,40,28,0,6,47,0.017246,0,0,0,6
1001.0,26,0,50,40,28,0,7,41,0.100647,0,0,0,6
1001.0,26,0,50,40,28,0,8,37,0.200434,0,0,0,6
1001.0,26,0,50,40,28,0,9,47,0.25048,0,0,0,6
1001.0,26,0,51,56,60,1,0,69,-99.0,1,1,1,6
1001.0,26,0,51,56,60,1,1,58,-99.0,1,1,1,6
1001.0,26,0,51,56,60,1,2,59,-99.0,0,1,1,6
1001.0,26,0,51,56,60,1,3,64,-99.0,1,1,1,6
1001.0,26,0,51,56,60,1,4,44,0.417234,1,0,0,6
1001.0,26,0,51,56,60,1,5,60,0.217085,1,0,0,6
1001.0,26,0,51,56,60,1,6,72,0.200497,1,0,0,6
1001.0,26,0,51,56,60,1,7,55,0.23439,1,0,0,6
1001.0,26,0,51,56,60,1,8,52,0.151702,1,0,0,6
1001.0,26,0,51,56,60,1,9,69,0.166977,1,0,0,6
1001.0,26,0,52,40,36,-1,0,49,-99.0,0,1,1,6
1001.0,26,0,52,40,36,-1,1,43,-99.0,1,1,1,6
1001.0,26,0,52,40,36,-1,2,60,-99.0,0,1,1,6
1001.0,26,0,52,40,36,-1,3,60,-99.0,0,1,1,6
1001.0,26,0,52,40,36,-1,4,53,0.217118,0,0,0,6
1001.0,26,0,52,40,36,-1,5,60,0.033569,0,0,0,6
1001.0,26,0,52,40,36,-1,6,71,0.017155,0,0,0,6
1001.0,26,0,52,40,36,-1,7,60,0.150824,0,0,0,6
1001.0,26,0,52,40,36,-1,8,58,0.167057,0,0,0,6
1001.0,26,0,52,40,36,-1,9,76,0.133599,0,0,0,6
1001.0,26,0,53,40,60,-1,0,36,-99.0,0,1,1,1
1001.0,26,0,53,40,60,-1,1,42,-99.0,0,1,1,1
1001.0,26,0,53,40,60,-1,2,36,-99.0,0,1,1,1
1001.0,26,0,53,40,60,-1,3,59,-99.0,1,1,1,1
1001.0,26,0,53,40,60,-1,4,75,1.850515,1,0,0,1
1001.0,26,0,54,56,60,-1,0,64,-99.0,0,1,1,6
1001.0,26,0,54,56,60,-1,1,57,-99.0,0,1,1,6
1001.0,26,0,54,56,60,-1,2,66,-99.0,1,1,1,6
1001.0,26,0,54,56,60,-1,3,67,-99.0,0,1,1,6
1001.0,26,0,54,56,60,-1,4,67,0.216855,0,0,0,6
1001.0,26,0,54,56,60,-1,5,57,0.283464,0,0,0,6
1001.0,26,0,54,56,60,-1,6,46,0.266649,0,0,0,6
1001.0,26,0,54,56,60,-1,7,47,0.065439,0,0,0,6
1001.0,26,0,54,56,60,-1,8,56,0.150456,0,0,0,6
1001.0,26,0,54,56,60,-1,9,50,0.200476,0,0,0,6
1001.0,26,0,55,20,40,-1,0,19,-99.0,0,1,1,1
1001.0,26,0,55,20,40,-1,1,25,-99.0,0,1,1,1
1001.0,26,0,55,20,40,-1,2,17,-99.0,0,1,1,1
1001.0,26,0,55,20,40,-1,3,40,-99.0,1,1,1,1
1001.0,26,0,55,20,40,-1,4,44,0.633475,1,0,0,1
1001.0,26,0,56,60,52,1,0,52,-99.0,1,1,1,6
1001.0,26,0,56,60,52,1,1,67,-99.0,0,1,1,6
1001.0,26,0,56,60,52,1,2,49,-99.0,1,1,1,6
1001.0,26,0,56,60,52,1,3,51,-99.0,1,1,1,6
1001.0,26,0,56,60,52,1,4,71,0.26811,0,0,0,6
1001.0,26,0,56,60,52,1,5,55,0.166602,0,0,0,6
1001.0,26,0,56,60,52,1,6,70,0.03376,0,0,0,6
1001.0,26,0,56,60,52,1,7,54,0.333825,0,0,0,6
1001.0,26,0,56,60,52,1,8,52,0.084777,0,0,0,6
1001.0,26,0,56,60,52,1,9,54,0.233823,0,0,0,6
1001.0,26,0,57,32,40,-1,0,39,-99.0,0,1,1,6
1001.0,26,0,57,32,40,-1,1,38,-99.0,1,1,1,6
1001.0,26,0,57,32,40,-1,2,21,-99.0,0,1,1,6
1001.0,26,0,57,32,40,-1,3,26,-99.0,0,1,1,6
1001.0,26,0,57,32,40,-1,4,36,0.517802,1,0,0,6
1001.0,26,0,57,32,40,-1,5,8,0.250466,0,0,0,6
1001.0,26,0,57,32,40,-1,6,40,0.017074,1,0,0,6
1001.0,26,0,57,32,40,-1,7,30,0.083658,1,0,0,6
1001.0,26,0,57,32,40,-1,8,47,0.417261,0,0,0,6
1001.0,26,0,57,32,40,-1,9,38,0.117183,1,0,0,6
1001.0,26,0,58,40,20,0,0,39,-99.0,0,1,1,1
1001.0,26,0,58,40,20,0,1,14,-99.0,1,1,1,1
1001.0,26,0,58,40,20,0,2,34,-99.0,0,1,1,1
1001.0,26,0,58,40,20,0,3,14,-99.0,1,1,1,1
1001.0,26,0,58,40,20,0,4,37,0.233823,0,0,0,1
1001.0,26,0,59,60,56,-1,0,67,-99.0,1,1,1,1
1001.0,26,0,59,60,56,-1,1,52,-99.0,0,1,1,1
1001.0,26,0,59,60,56,-1,2,54,-99.0,0,1,1,1
1001.0,26,0,59,60,56,-1,3,62,-99.0,0,1,1,1
1001.0,26,0,59,60,56,-1,4,58,0.700319,0,0,0,1
1001.0,26,0,60,40,32,0,0,31,-99.0,1,1,1,6
1001.0,26,0,60,40,32,0,1,23,-99.0,1,1,1,6
1001.0,26,0,60,40,32,0,2,34,-99.0,0,1,1,6
1001.0,26,0,60,40,32,0,3,47,-99.0,0,1,1,6
1001.0,26,0,60,40,32,0,4,49,1.335528,0,0,0,6
1001.0,26,0,60,40,32,0,5,31,0.183795,1,0,0,6
1001.0,26,0,60,40,32,0,6,48,0.233471,0,0,0,6
1001.0,26,0,60,40,32,0,7,29,0.283959,0,0,0,6
1001.0,26,0,60,40,32,0,8,43,0.91668,0,0,0,6
1001.0,26,0,60,40,32,0,9,46,0.317146,0,0,0,6
1001.0,26,0,61,28,40,0,0,20,-99.0,0,1,1,1
1001.0,26,0,61,28,40,0,1,41,-99.0,1,1,1,1
1001.0,26,0,61,28,40,0,2,45,-99.0,1,1,1,1
1001.0,26,0,61,28,40,0,3,33,-99.0,0,1,1,1
1001.0,26,0,61,28,40,0,4,43,0.333698,1,0,0,1
1001.0,26,0,62,56,60,-1,0,65,-99.0,0,1,1,1
1001.0,26,0,62,56,60,-1,1,70,-99.0,1,1,1,1
1001.0,26,0,62,56,60,-1,2,55,-99.0,0,1,1,1
1001.0,26,0,62,56,60,-1,3,63,-99.0,0,1,1,1
1001.0,26,0,62,56,60,-1,4,41,0.134211,0,0,0,1
1001.0,26,0,63,60,48,0,0,48,-99.0,1,1,1,1
1001.0,26,0,63,60,48,0,1,60,-99.0,0,1,1,1
1001.0,26,0,63,60,48,0,2,49,-99.0,1,1,1,1
1001.0,26,0,63,60,48,0,3,63,-99.0,0,1,1,1
1001.0,26,0,63,60,48,0,4,56,0.05058,0,0,0,1
1001.0,26,0,64,40,20,0,0,38,-99.0,0,1,1,1
1001.0,26,0,64,40,20,0,1,20,-99.0,1,1,1,1
1001.0,26,0,64,40,20,0,2,19,-99.0,1,1,1,1
1001.0,26,0,64,40,20,0,3,27,-99.0,0,1,1,1
1001.0,26,0,64,40,20,0,4,41,0.217218,0,0,0,1
1001.0,26,0,65,40,60,0,0,46,-99.0,0,1,1,6
1001.0,26,0,65,40,60,0,1,57,-99.0,1,1,1,6
1001.0,26,0,65,40,60,0,2,38,-99.0,0,1,1,6
1001.0,26,0,65,40,60,0,3,64,-99.0,1,1,1,6
1001.0,26,0,65,40,60,0,4,39,0.98393,0,0,0,6
1001.0,26,0,65,40,60,0,5,58,0.300615,1,0,0,6
1001.0,26,0,65,40,60,0,6,52,0.201133,1,0,0,6
1001.0,26,0,65,40,60,0,7,71,0.067096,1,0,0,6
1001.0,26,0,65,40,60,0,8,57,0.249883,1,0,0,6
1001.0,26,0,65,40,60,0,9,51,0.300339,1,0,0,6
1001.0,26,0,66,40,28,-1,0,37,-99.0,0,1,1,6
1001.0,26,0,66,40,28,-1,1,26,-99.0,1,1,1,6
1001.0,26,0,66,40,28,-1,2,19,-99.0,0,1,1,6
1001.0,26,0,66,40,28,-1,3,54,-99.0,0,1,1,6
1001.0,26,0,66,40,28,-1,4,31,0.316922,1,0,0,6
1001.0,26,0,66,40,28,-1,5,38,0.251622,0,0,0,6
1001.0,26,0,66,40,28,-1,6,31,0.20071,0,0,0,6
1001.0,26,0,66,40,28,-1,7,39,0.200424,1,0,0,6
1001.0,26,0,66,40,28,-1,8,42,0.666942,0,0,0,6
1001.0,26,0,66,40,28,-1,9,33,0.166636,0,0,0,6
1001.0,26,0,67,28,40,0,0,18,-99.0,0,1,1,1
1001.0,26,0,67,28,40,0,1,30,-99.0,0,1,1,1
1001.0,26,0,67,28,40,0,2,36,-99.0,1,1,1,1
1001.0,26,0,67,28,40,0,3,47,-99.0,1,1,1,1
1001.0,26,0,67,28,40,0,4,42,0.36703,1,0,0,1
1001.0,26,0,68,40,36,1,0,40,-99.0,1,1,1,1
1001.0,26,0,68,40,36,1,1,36,-99.0,1,1,1,1
1001.0,26,0,68,40,36,1,2,36,-99.0,1,1,1,1
1001.0,26,0,68,40,36,1,3,25,-99.0,0,1,1,1
1001.0,26,0,68,40,36,1,4,49,0.350114,0,0,0,1
1001.0,26,0,69,40,28,1,0,36,-99.0,1,1,1,6
1001.0,26,0,69,40,28,1,1,11,-99.0,1,1,1,6
1001.0,26,0,69,40,28,1,2,17,-99.0,1,1,1,6
1001.0,26,0,69,40,28,1,3,32,-99.0,0,1,1,6
1001.0,26,0,69,40,28,1,4,47,0.484055,0,0,0,6
1001.0,26,0,69,40,28,1,5,26,0.234148,1,0,0,6
1001.0,26,0,69,40,28,1,6,28,0.150956,0,0,0,6
1001.0,26,0,69,40,28,1,7,35,0.400159,1,0,0,6
1001.0,26,0,69,40,28,1,8,43,0.217054,0,0,0,6
1001.0,26,0,69,40,28,1,9,44,0.184383,0,0,0,6
1001.0,26,0,70,40,36,0,0,32,-99.0,1,1,1,6
1001.0,26,0,70,40,36,0,1,48,-99.0,0,1,1,6
1001.0,26,0,70,40,36,0,2,42,-99.0,0,1,1,6
1001.0,26,0,70,40,36,0,3,26,-99.0,1,1,1,6
1001.0,26,0,70,40,36,0,4,33,0.083804,0,0,0,6
1001.0,26,0,70,40,36,0,5,33,1.231704,1,0,0,6
1001.0,26,0,70,40,36,0,6,28,0.183646,0,0,0,6
1001.0,26,0,70,40,36,0,7,42,0.250423,0,0,0,6
1001.0,26,0,70,40,36,0,8,40,0.233516,0,0,0,6
1001.0,26,0,70,40,36,0,9,41,0.067083,0,0,0,6
1001.0,26,0,71,40,36,-1,0,38,-99.0,0,1,1,6
1001.0,26,0,71,40,36,-1,1,30,-99.0,0,1,1,6
1001.0,26,0,71,40,36,-1,2,38,-99.0,0,1,1,6
1001.0,26,0,71,40,36,-1,3,36,-99.0,1,1,1,6
1001.0,26,0,71,40,36,-1,4,46,0.384931,0,0,0,6
1001.0,26,0,71,40,36,-1,5,38,0.150286,0,0,0,6
1001.0,26,0,71,40,36,-1,6,19,0.433634,1,0,0,6
1001.0,26,0,71,40,36,-1,7,33,0.134521,0,0,0,6
1001.0,26,0,71,40,36,-1,8,38,0.050191,0,0,0,6
1001.0,26,0,71,40,36,-1,9,48,0.133666,0,0,0,6
1001.0,26,0,72,52,60,0,0,48,-99.0,1,1,1,6
1001.0,26,0,72,52,60,0,1,54,-99.0,0,1,1,6
1001.0,26,0,72,52,60,0,2,69,-99.0,1,1,1,6
1001.0,26,0,72,52,60,0,3,40,-99.0,0,1,1,6
1001.0,26,0,72,52,60,0,4,55,0.333534,1,0,0,6
1001.0,26,0,72,52,60,0,5,68,0.283786,1,0,0,6
1001.0,26,0,72,52,60,0,6,58,0.350403,1,0,0,6
1001.0,26,0,72,52,60,0,7,65,0.299083,1,0,0,6
1001.0,26,0,72,52,60,0,8,62,0.483798,1,0,0,6
1001.0,26,0,72,52,60,0,9,69,0.300541,1,0,0,6
1001.0,26,0,73,60,40,-1,0,59,-99.0,0,1,1,6
1001.0,26,0,73,60,40,-1,1,42,-99.0,1,1,1,6
1001.0,26,0,73,60,40,-1,2,56,-99.0,0,1,1,6
1001.0,26,0,73,60,40,-1,3,62,-99.0,0,1,1,6
1001.0,26,0,73,60,40,-1,4,49,0.36683,1,0,0,6
1001.0,26,0,73,60,40,-1,5,47,0.550484,1,0,0,6
1001.0,26,0,73,60,40,-1,6,27,0.318108,1,0,0,6
1001.0,26,0,73,60,40,-1,7,75,0.083754,0,0,0,6
1001.0,26,0,73,60,40,-1,8,50,0.200539,0,0,0,6
1001.0,26,0,73,60,40,-1,9,73,0.200806,0,0,0,6
1001.0,26,0,74,40,60,1,0,71,-99.0,1,1,1,6
1001.0,26,0,74,40,60,1,1,51,-99.0,1,1,1,6
1001.0,26,0,74,40,60,1,2,64,-99.0,1,1,1,6
1001.0,26,0,74,40,60,1,3,29,-99.0,0,1,1,6
1001.0,26,0,74,40,60,1,4,58,0.300461,1,0,0,6
1001.0,26,0,74,40,60,1,5,63,0.017245,1,0,0,6
1001.0,26,0,74,40,60,1,6,52,0.033608,1,0,0,6
1001.0,26,0,74,40,60,1,7,58,0.183436,1,0,0,6
1001.0,26,0,74,40,60,1,8,49,0.150359,1,0,0,6
1001.0,26,0,74,40,60,1,9,73,0.134256,1,0,0,6
1001.0,26,0,75,20,40,0,0,47,-99.0,1,1,1,1
1001.0,26,0,75,20,40,0,1,22,-99.0,0,1,1,1
1001.0,26,0,75,20,40,0,2,25,-99.0,0,1,1,1
1001.0,26,0,75,20,40,0,3,52,-99.0,1,1,1,1
1001.0,26,0,75,20,40,0,4,20,0.267589,0,0,0,1
1001.0,26,0,76,32,40,0,0,20,-99.0,1,1,1,1
1001.0,26,0,76,32,40,0,1,37,-99.0,1,1,1,1
1001.0,26,0,76,32,40,0,2,23,-99.0,0,1,1,1
1001.0,26,0,76,32,40,0,3,24,-99.0,0,1,1,1
1001.0,26,0,76,32,40,0,4,28,0.333876,1,0,0,1
1001.0,26,0,77,60,40,-1,0,48,-99.0,0,1,1,1
1001.0,26,0,77,60,40,-1,1,41,-99.0,1,1,1,1
1001.0,26,0,77,60,40,-1,2,54,-99.0,0,1,1,1
1001.0,26,0,77,60,40,-1,3,66,-99.0,0,1,1,1
1001.0,26,0,77,60,40,-1,4,60,0.133536,0,0,0,1
1001.0,26,0,78,56,60,0,0,57,-99.0,1,1,1,6
1001.0,26,0,78,56,60,0,1,70,-99.0,1,1,1,6
1001.0,26,0,78,56,60,0,2,62,-99.0,0,1,1,6
1001.0,26,0,78,56,60,0,3,47,-99.0,0,1,1,6
1001.0,26,0,78,56,60,0,4,58,0.133926,1,0,0,6
1001.0,26,0,78,56,60,0,5,64,0.117109,1,0,0,6
1001.0,26,0,78,56,60,0,6,53,0.067065,1,0,0,6
1001.0,26,0,78,56,60,0,7,65,0.083846,1,0,0,6
1001.0,26,0,78,56,60,0,8,48,0.183747,1,0,0,6
1001.0,26,0,78,56,60,0,9,54,0.167178,1,0,0,6
1001.0,26,0,79,32,40,-1,0,39,-99.0,0,1,1,1
1001.0,26,0,79,32,40,-1,1,39,-99.0,0,1,1,1
1001.0,26,0,79,32,40,-1,2,21,-99.0,0,1,1,1
1001.0,26,0,79,32,40,-1,3,57,-99.0,1,1,1,1
1001.0,26,0,79,32,40,-1,4,36,0.066755,1,0,0,1
1001.0,26,0,80,48,60,0,0,46,-99.0,1,1,1,1
1001.0,26,0,80,48,60,0,1,49,-99.0,0,1,1,1
1001.0,26,0,80,48,60,0,2,58,-99.0,1,1,1,1
1001.0,26,0,80,48,60,0,3,49,-99.0,0,1,1,1
1001.0,26,0,80,48,60,0,4,65,0.033988,1,0,0,1
1001.0,26,0,81,56,60,1,0,65,-99.0,0,1,1,6
1001.0,26,0,81,56,60,1,1,62,-99.0,1,1,1,6
1001.0,26,0,81,56,60,1,2,60,-99.0,1,1,1,6
1001.0,26,0,81,56,60,1,3,72,-99.0,1,1,1,6
1001.0,26,0,81,56,60,1,4,53,0.417949,1,0,0,6
1001.0,26,0,81,56,60,1,5,52,0.233784,1,0,0,6
1001.0,26,0,81,56,60,1,6,59,0.467088,1,0,0,6
1001.0,26,0,81,56,60,1,7,63,0.084145,1,0,0,6
1001.0,26,0,81,56,60,1,8,62,0.150447,1,0,0,6
1001.0,26,0,81,56,60,1,9,64,0.184253,1,0,0,6
1001.0,26,0,82,60,56,0,0,55,-99.0,1,1,1,1
1001.0,26,0,82,60,56,0,1,56,-99.0,0,1,1,1
1001.0,26,0,82,60,56,0,2,45,-99.0,1,1,1,1
1001.0,26,0,82,60,56,0,3,48,-99.0,0,1,1,1
1001.0,26,0,82,60,56,0,4,60,0.567073,0,0,0,1
1001.0,26,0,83,40,36,0,0,45,-99.0,1,1,1,6
1001.0,26,0,83,40,36,0,1,19,-99.0,1,1,1,6
1001.0,26,0,83,40,36,0,2,42,-99.0,0,1,1,6
1001.0,26,0,83,40,36,0,3,52,-99.0,0,1,1,6
1001.0,26,0,83,40,36,0,4,33,0.750019,0,0,0,6
1001.0,26,0,83,40,36,0,5,41,0.133414,1,0,0,6
1001.0,26,0,83,40,36,0,6,41,0.100542,0,0,0,6
1001.0,26,0,83,40,36,0,7,40,0.167554,0,0,0,6
1001.0,26,0,83,40,36,0,8,43,0.150459,0,0,0,6
1001.0,26,0,83,40,36,0,9,35,0.017078,0,0,0,6
1001.0,26,0,84,60,52,-1,0,71,-99.0,1,1,1,6
1001.0,26,0,84,60,52,-1,1,64,-99.0,0,1,1,6
1001.0,26,0,84,60,52,-1,2,74,-99.0,0,1,1,6
1001.0,26,0,84,60,52,-1,3,46,-99.0,0,1,1,6
1001.0,26,0,84,60,52,-1,4,50,0.500479,1,0,0,6
1001.0,26,0,84,60,52,-1,5,51,0.083784,0,0,0,6
1001.0,26,0,84,60,52,-1,6,56,0.01699,0,0,0,6
1001.0,26,0,84,60,52,-1,7,51,0.017105,0,0,0,6
1001.0,26,0,84,60,52,-1,8,73,0.017089,0,0,0,6
1001.0,26,0,84,60,52,-1,9,69,0.117059,0,0,0,6
1001.0,26,0,85,52,60,-1,0,58,-99.0,0,1,1,1
1001.0,26,0,85,52,60,-1,1,47,-99.0,0,1,1,1
1001.0,26,0,85,52,60,-1,2,61,-99.0,1,1,1,1
1001.0,26,0,85,52,60,-1,3,53,-99.0,0,1,1,1
1001.0,26,0,85,52,60,-1,4,38,0.084108,0,0,0,1
1001.0,26,0,86,60,40,1,0,38,-99.0,1,1,1,1
1001.0,26,0,86,60,40,1,1,29,-99.0,1,1,1,1
1001.0,26,0,86,60,40,1,2,33,-99.0,1,1,1,1
1001.0,26,0,86,60,40,1,3,52,-99.0,0,1,1,1
1001.0,26,0,86,60,40,1,4,71,0.434149,0,0,0,1
1001.0,26,0,87,32,40,1,0,44,-99.0,1,1,1,1
1001.0,26,0,87,32,40,1,1,23,-99.0,0,1,1,1
1001.0,26,0,87,32,40,1,2,50,-99.0,1,1,1,1
1001.0,26,0,87,32,40,1,3,43,-99.0,1,1,1,1
1001.0,26,0,87,32,40,1,4,31,0.350192,1,0,0,1
1001.0,26,0,88,48,60,1,0,59,-99.0,1,1,1,1
1001.0,26,0,88,48,60,1,1,58,-99.0,1,1,1,1
1001.0,26,0,88,48,60,1,2,51,-99.0,1,1,1,1
1001.0,26,0,88,48,60,1,3,37,-99.0,0,1,1,1
1001.0,26,0,88,48,60,1,4,57,1.099871,1,0,0,1
1001.0,26,0,89,40,60,0,0,67,-99.0,1,1,1,6
1001.0,26,0,89,40,60,0,1,28,-99.0,0,1,1,6
1001.0,26,0,89,40,60,0,2,68,-99.0,1,1,1,6
1001.0,26,0,89,40,60,0,3,38,-99.0,0,1,1,6
1001.0,26,0,89,40,60,0,4,51,0.233349,1,0,0,6
1001.0,26,0,89,40,60,0,5,63,0.200339,1,0,0,6
1001.0,26,0,89,40,60,0,6,56,0.050342,1,0,0,6
1001.0,26,0,89,40,60,0,7,68,0.117685,1,0,0,6
1001.0,26,0,89,40,60,0,8,59,0.250204,1,0,0,6
1001.0,26,0,89,40,60,0,9,54,0.333497,1,0,0,6
1001.0,26,0,90,20,40,0,0,40,-99.0,1,1,1,1
1001.0,26,0,90,20,40,0,1,23,-99.0,0,1,1,1
1001.0,26,0,90,20,40,0,2,47,-99.0,1,1,1,1
1001.0,26,0,90,20,40,0,3,23,-99.0,0,1,1,1
1001.0,26,0,90,20,40,0,4,45,0.600486,1,0,0,1
1001.0,26,0,91,60,40,1,0,67,-99.0,0,1,1,6
1001.0,26,0,91,60,40,1,1,35,-99.0,1,1,1,6
1001.0,26,0,91,60,40,1,2,22,-99.0,1,1,1,6
1001.0,26,0,91,60,40,1,3,54,-99.0,1,1,1,6
1001.0,26,0,91,60,40,1,4,52,0.250273,0,0,0,6
1001.0,26,0,91,60,40,1,5,57,0.517242,0,0,0,6
1001.0,26,0,91,60,40,1,6,60,0.167725,0,0,0,6
1001.0,26,0,91,60,40,1,7,69,0.017253,0,0,0,6
1001.0,26,0,91,60,40,1,8,68,0.150213,0,0,0,6
1001.0,26,0,91,60,40,1,9,64,0.116441,0,0,0,6
1001.0,26,0,92,36,40,0,0,41,-99.0,1,1,1,1
1001.0,26,0,92,36,40,0,1,28,-99.0,0,1,1,1
1001.0,26,0,92,36,40,0,2,36,-99.0,0,1,1,1
1001.0,26,0,92,36,40,0,3,34,-99.0,1,1,1,1
1001.0,26,0,92,36,40,0,4,37,0.566801,0,0,0,1
1001.0,26,0,93,60,52,0,0,51,-99.0,0,1,1,6
1001.0,26,0,93,60,52,0,1,47,-99.0,1,1,1,6
1001.0,26,0,93,60,52,0,2,53,-99.0,1,1,1,6
1001.0,26,0,93,60,52,0,3,56,-99.0,0,1,1,6
1001.0,26,0,93,60,52,0,4,53,0.733805,1,0,0,6
1001.0,26,0,93,60,52,0,5,59,0.550731,0,0,0,6
1001.0,26,0,93,60,52,0,6,65,0.483073,1,0,0,6
1001.0,26,0,93,60,52,0,7,60,0.383729,0,0,0,6
1001.0,26,0,93,60,52,0,8,44,0.350433,1,0,0,6
1001.0,26,0,93,60,52,0,9,62,0.082746,0,0,0,6
1001.0,26,0,94,48,60,-1,0,52,-99.0,1,1,1,6
1001.0,26,0,94,48,60,-1,1,52,-99.0,0,1,1,6
1001.0,26,0,94,48,60,-1,2,33,-99.0,0,1,1,6
1001.0,26,0,94,48,60,-1,3,53,-99.0,0,1,1,6
1001.0,26,0,94,48,60,-1,4,56,0.267553,1,0,0,6
1001.0,26,0,94,48,60,-1,5,45,0.28313,0,0,0,6
1001.0,26,0,94,48,60,-1,6,59,0.150402,1,0,0,6
1001.0,26,0,94,48,60,-1,7,55,0.217228,0,0,0,6
1001.0,26,0,94,48,60,-1,8,57,0.201246,1,0,0,6
1001.0,26,0,94,48,60,-1,9,86,0.23334,1,0,0,6
1001.0,26,0,95,56,60,1,0,68,-99.0,1,1,1,1
1001.0,26,0,95,56,60,1,1,60,-99.0,1,1,1,1
1001.0,26,0,95,56,60,1,2,59,-99.0,1,1,1,1
1001.0,26,0,95,56,60,1,3,65,-99.0,0,1,1,1
1001.0,26,0,95,56,60,1,4,61,0.134614,1,0,0,1
1001.0,26,0,96,52,60,0,0,51,-99.0,0,1,1,1
1001.0,26,0,96,52,60,0,1,57,-99.0,1,1,1,1
1001.0,26,0,96,52,60,0,2,48,-99.0,1,1,1,1
1001.0,26,0,96,52,60,0,3,67,-99.0,0,1,1,1
1001.0,26,0,96,52,60,0,4,49,0.200729,1,0,0,1
1001.0,26,0,97,28,40,1,0,32,-99.0,0,1,1,6
1001.0,26,0,97,28,40,1,1,34,-99.0,1,1,1,6
1001.0,26,0,97,28,40,1,2,30,-99.0,1,1,1,6
1001.0,26,0,97,28,40,1,3,40,-99.0,1,1,1,6
1001.0,26,0,97,28,40,1,4,26,0.434012,0,0,0,6
1001.0,26,0,97,28,40,1,5,47,0.368148,1,0,0,6
1001.0,26,0,97,28,40,1,6,54,0.183956,1,0,0,6
1001.0,26,0,97,28,40,1,7,35,0.05007,1,0,0,6
1001.0,26,0,97,28,40,1,8,43,0.05051,1,0,0,6
1001.0,26,0,97,28,40,1,9,45,0.13356,1,0,0,6
1001.0,26,0,98,32,40,0,0,33,-99.0,0,1,1,1
1001.0,26,0,98,32,40,0,1,41,-99.0,1,1,1,1
1001.0,26,0,98,32,40,0,2,34,-99.0,0,1,1,1
1001.0,26,0,98,32,40,0,3,57,-99.0,1,1,1,1
1001.0,26,0,98,32,40,0,4,31,0.467271,0,0,0,1
1001.0,26,0,99,40,60,-1,0,66,-99.0,1,1,1,6
1001.0,26,0,99,40,60,-1,1,44,-99.0,0,1,1,6
1001.0,26,0,99,40,60,-1,2,37,-99.0,0,1,1,6
1001.0,26,0,99,40,60,-1,3,35,-99.0,0,1,1,6
1001.0,26,0,99,40,60,-1,4,60,0.234212,1,0,0,6
1001.0,26,0,99,40,60,-1,5,54,0.382827,1,0,0,6
1001.0,26,0,99,40,60,-1,6,63,0.267106,1,0,0,6
1001.0,26,0,99,40,60,-1,7,68,0.316874,1,0,0,6
1001.0,26,0,99,40,60,-1,8,62,0.266776,1,0,0,6
1001.0,26,0,99,40,60,-1,9,64,0.417,1,0,0,6
1001.0,26,0,100,40,60,0,0,65,-99.0,1,1,1,1
1001.0,26,0,100,40,60,0,1,60,-99.0,1,1,1,1
1001.0,26,0,100,40,60,0,2,41,-99.0,0,1,1,1
1001.0,26,0,100,40,60,0,3,30,-99.0,0,1,1,1
1001.0,26,0,100,40,60,0,4,58,0.250381,1,0,0,1
1001.0,26,0,101,28,40,1,0,43,-99.0,1,1,1,1
1001.0,26,0,101,28,40,1,1,44,-99.0,1,1,1,1
1001.0,26,0,101,28,40,1,2,38,-99.0,1,1,1,1
1001.0,26,0,101,28,40,1,3,23,-99.0,0,1,1,1
1001.0,26,0,101,28,40,1,4,38,0.333812,1,0,0,1
1001.0,26,0,102,52,60,-1,0,62,-99.0,1,1,1,6
1001.0,26,0,102,52,60,-1,1,43,-99.0,0,1,1,6
1001.0,26,0,102,52,60,-1,2,56,-99.0,0,1,1,6
1001.0,26,0,102,52,60,-1,3,47,-99.0,0,1,1,6
1001.0,26,0,102,52,60,-1,4,53,0.517183,0,0,0,6
1001.0,26,0,102,52,60,-1,5,60,0.217179,1,0,0,6
1001.0,26,0,102,52,60,-1,6,54,0.1339,0,0,0,6
1001.0,26,0,102,52,60,-1,7,63,0.050582,1,0,0,6
1001.0,26,0,102,52,60,-1,8,59,0.250182,1,0,0,6
1001.0,26,0,102,52,60,-1,9,65,0.017082,1,0,0,6
1001.0,26,0,103,60,52,-1,0,61,-99.0,0,1,1,1
1001.0,26,0,103,60,52,-1,1,65,-99.0,0,1,1,1
1001.0,26,0,103,60,52,-1,2,61,-99.0,1,1,1,1
1001.0,26,0,103,60,52,-1,3,66,-99.0,0,1,1,1
1001.0,26,0,103,60,52,-1,4,53,0.351529,0,0,0,1
1001.0,26,0,104,56,60,0,0,37,-99.0,0,1,1,1
1001.0,26,0,104,56,60,0,1,69,-99.0,1,1,1,1
1001.0,26,0,104,56,60,0,2,60,-99.0,1,1,1,1
1001.0,26,0,104,56,60,0,3,65,-99.0,0,1,1,1
1001.0,26,0,104,56,60,0,4,58,0.333705,1,0,0,1
1001.0,26,0,105,48,60,0,0,50,-99.0,0,1,1,6
1001.0,26,0,105,48,60,0,1,68,-99.0,1,1,1,6
1001.0,26,0,105,48,60,0,2,57,-99.0,1,1,1,6
1001.0,26,0,105,48,60,0,3,47,-99.0,0,1,1,6
1001.0,26,0,105,48,60,0,4,56,0.267042,0,0,0,6
1001.0,26,0,105,48,60,0,5,60,1.050461,1,0,0,6
1001.0,26,0,105,48,60,0,6,43,0.100851,0,0,0,6
1001.0,26,0,105,48,60,0,7,60,0.100152,1,0,0,6
1001.0,26,0,105,48,60,0,8,46,0.267493,1,0,0,6
1001.0,26,0,105,48,60,0,9,69,0.200423,1,0,0,6
1001.0,26,0,106,40,32,1,0,25,-99.0,1,1,1,1
1001.0,26,0,106,40,32,1,1,34,-99.0,0,1,1,1
1001.0,26,0,106,40,32,1,2,43,-99.0,1,1,1,1
1001.0,26,0,106,40,32,1,3,40,-99.0,1,1,1,1
1001.0,26,0,106,40,32,1,4,35,0.733794,0,0,0,1
1001.0,26,0,107,60,48,-1,0,52,-99.0,1,1,1,1
1001.0,26,0,107,60,48,-1,1,61,-99.0,0,1,1,1
1001.0,26,0,107,60,48,-1,2,59,-99.0,0,1,1,1
1001.0,26,0,107,60,48,-1,3,69,-99.0,0,1,1,1
1001.0,26,0,107,60,48,-1,4,53,1.366549,1,0,0,1
1001.0,26,0,108,40,32,0,0,43,-99.0,0,1,1,1
1001.0,26,0,108,40,32,0,1,43,-99.0,1,1,1,1
1001.0,26,0,108,40,32,0,2,42,-99.0,1,1,1,1
1001.0,26,0,108,40,32,0,3,41,-99.0,0,1,1,1
1001.0,26,0,108,40,32,0,4,44,0.350451,0,0,0,1
1001.0,26,0,109,40,20,1,0,32,-99.0,1,1,1,1
1001.0,26,0,109,40,20,1,1,22,-99.0,1,1,1,1
1001.0,26,0,109,40,20,1,2,41,-99.0,0,1,1,1
1001.0,26,0,109,40,20,1,3,17,-99.0,1,1,1,1
1001.0,26,0,109,40,20,1,4,51,0.167239,0,0,0,1
1001.0,26,0,110,60,40,0,0,27,-99.0,1,1,1,6
1001.0,26,0,110,60,40,0,1,57,-99.0,0,1,1,6
1001.0,26,0,110,60,40,0,2,69,-99.0,0,1,1,6
1001.0,26,0,110,60,40,0,3,36,-99.0,1,1,1,6
1001.0,26,0,110,60,40,0,4,61,0.233595,0,0,0,6
1001.0,26,0,110,60,40,0,5,51,0.084046,0,0,0,6
1001.0,26,0,110,60,40,0,6,57,0.084161,0,0,0,6
1001.0,26,0,110,60,40,0,7,47,0.116781,0,0,0,6
1001.0,26,0,110,60,40,0,8,68,0.067269,0,0,0,6
1001.0,26,0,110,60,40,0,9,69,0.217569,0,0,0,6
1001.0,26,0,111,60,52,0,0,65,-99.0,0,1,1,6
1001.0,26,0,111,60,52,0,1,55,-99.0,1,1,1,6
1001.0,26,0,111,60,52,0,2,51,-99.0,0,1,1,6
1001.0,26,0,111,60,52,0,3,45,-99.0,1,1,1,6
1001.0,26,0,111,60,52,0,4,59,0.167022,0,0,0,6
1001.0,26,0,111,60,52,0,5,70,0.066984,0,0,0,6
1001.0,26,0,111,60,52,0,6,56,0.166844,0,0,0,6
1001.0,26,0,111,60,52,0,7,62,0.150214,0,0,0,6
1001.0,26,0,111,60,52,0,8,65,0.200456,0,0,0,6
1001.0,26,0,111,60,52,0,9,58,0.184373,0,0,0,6
1001.0,26,0,112,60,40,-1,0,54,-99.0,0,1,1,6
1001.0,26,0,112,60,40,-1,1,66,-99.0,0,1,1,6
1001.0,26,0,112,60,40,-1,2,41,-99.0,1,1,1,6
1001.0,26,0,112,60,40,-1,3,65,-99.0,0,1,1,6
1001.0,26,0,112,60,40,-1,4,56,1.234541,0,0,0,6
1001.0,26,0,112,60,40,-1,5,55,0.333629,1,0,0,6
1001.0,26,0,112,60,40,-1,6,55,0.216847,0,0,0,6
1001.0,26,0,112,60,40,-1,7,63,0.167075,0,0,0,6
1001.0,26,0,112,60,40,-1,8,73,0.101065,0,0,0,6
1001.0,26,0,112,60,40,-1,9,58,0.167089,0,0,0,6
1001.0,26,0,113,32,40,-1,0,19,-99.0,0,1,1,6
1001.0,26,0,113,32,40,-1,1,37,-99.0,0,1,1,6
1001.0,26,0,113,32,40,-1,2,47,-99.0,1,1,1,6
1001.0,26,0,113,32,40,-1,3,38,-99.0,0,1,1,6
1001.0,26,0,113,32,40,-1,4,26,0.450164,0,0,0,6
1001.0,26,0,113,32,40,-1,5,49,0.16708,1,0,0,6
1001.0,26,0,113,32,40,-1,6,24,0.150496,0,0,0,6
1001.0,26,0,113,32,40,-1,7,34,0.250343,1,0,0,6
1001.0,26,0,113,32,40,-1,8,33,0.083962,0,0,0,6
1001.0,26,0,113,32,40,-1,9,54,0.533698,1,0,0,6
1001.0,26,0,114,48,60,-1,0,57,-99.0,0,1,1,1
1001.0,26,0,114,48,60,-1,1,52,-99.0,0,1,1,1
1001.0,26,0,114,48,60,-1,2,62,-99.0,1,1,1,1
1001.0,26,0,114,48,60,-1,3,53,-99.0,0,1,1,1
1001.0,26,0,114,48,60,-1,4,56,0.183637,1,0,0,1
1001.0,26,0,115,40,28,0,0,54,-99.0,0,1,1,1
1001.0,26,0,115,40,28,0,1,31,-99.0,0,1,1,1
1001.0,26,0,115,40,28,0,2,25,-99.0,1,1,1,1
1001.0,26,0,115,40,28,0,3,21,-99.0,1,1,1,1
1001.0,26,0,115,40,28,0,4,47,0.233907,0,0,0,1
1001.0,26,0,116,40,60,0,0,36,-99.0,0,1,1,1
1001.0,26,0,116,40,60,0,1,82,-99.0,1,1,1,1
1001.0,26,0,116,40,60,0,2,50,-99.0,0,1,1,1
1001.0,26,0,116,40,60,0,3,59,-99.0,1,1,1,1
1001.0,26,0,116,40,60,0,4,70,0.266953,1,0,0,1
1001.0,26,0,117,36,40,-1,0,44,-99.0,0,1,1,6
1001.0,26,0,117,36,40,-1,1,19,-99.0,0,1,1,6
1001.0,26,0,117,36,40,-1,2,27,-99.0,0,1,1,6
1001.0,26,0,117,36,40,-1,3,37,-99.0,1,1,1,6
1001.0,26,0,117,36,40,-1,4,42,0.186741,1,0,0,6
1001.0,26,0,117,36,40,-1,5,54,0.183922,1,0,0,6
1001.0,26,0,117,36,40,-1,6,34,0.033878,0,0,0,6
1001.0,26,0,117,36,40,-1,7,24,0.050355,1,0,0,6
1001.0,26,0,117,36,40,-1,8,50,0.13365,1,0,0,6
1001.0,26,0,117,36,40,-1,9,35,0.283722,1,0,0,6
1001.0,26,0,118,40,28,0,0,31,-99.0,1,1,1,1
1001.0,26,0,118,40,28,0,1,35,-99.0,0,1,1,1
1001.0,26,0,118,40,28,0,2,33,-99.0,0,1,1,1
1001.0,26,0,118,40,28,0,3,26,-99.0,1,1,1,1
1001.0,26,0,118,40,28,0,4,51,0.366742,0,0,0,1
1001.0,26,0,119,32,40,0,0,40,-99.0,1,1,1,6
1001.0,26,0,119,32,40,0,1,42,-99.0,1,1,1,6
1001.0,26,0,119,32,40,0,2,25,-99.0,0,1,1,6
1001.0,26,0,119,32,40,0,3,55,-99.0,0,1,1,6
1001.0,26,0,119,32,40,0,4,26,0.416798,1,0,0,6
1001.0,26,0,119,32,40,0,5,37,0.100733,0,0,0,6
1001.0,26,0,119,32,40,0,6,24,0.400417,1,0,0,6
1001.0,26,0,119,32,40,0,7,31,0.050308,0,0,0,6
1001.0,26,0,119,32,40,0,8,20,0.083851,0,0,0,6
1001.0,26,0,119,32,40,0,9,26,0.301181,0,0,0,6
1001.0,26,0,120,52,60,1,0,53,-99.0,1,1,1,6
1001.0,26,0,120,52,60,1,1,55,-99.0,1,1,1,6
1001.0,26,0,120,52,60,1,2,60,-99.0,1,1,1,6
1001.0,26,0,120,52,60,1,3,25,-99.0,0,1,1,6
1001.0,26,0,120,52,60,1,4,55,0.550637,1,0,0,6
1001.0,26,0,120,52,60,1,5,67,0.016726,1,0,0,6
1001.0,26,0,120,52,60,1,6,58,0.150447,1,0,0,6
1001.0,26,0,120,52,60,1,7,67,0.167033,1,0,0,6
1001.0,26,0,120,52,60,1,8,65,0.483626,1,0,0,6
1001.0,26,0,120,52,60,1,9,55,0.200466,1,0,0,6
1001.0,26,0,121,60,48,1,0,53,-99.0,1,1,1,1
1001.0,26,0,121,60,48,1,1,54,-99.0,1,1,1,1
1001.0,26,0,121,60,48,1,2,57,-99.0,0,1,1,1
1001.0,26,0,121,60,48,1,3,36,-99.0,1,1,1,1
1001.0,26,0,121,60,48,1,4,71,1.183721,0,0,0,1
1001.0,26,0,122,48,60,0,0,56,-99.0,1,1,1,1
1001.0,26,0,122,48,60,0,1,56,-99.0,0,1,1,1
1001.0,26,0,122,48,60,0,2,46,-99.0,0,1,1,1
1001.0,26,0,122,48,60,0,3,68,-99.0,1,1,1,1
1001.0,26,0,122,48,60,0,4,61,0.150515,1,0,0,1
1001.0,26,0,123,60,48,-1,0,63,-99.0,1,1,1,6
1001.0,26,0,123,60,48,-1,1,37,-99.0,0,1,1,6
1001.0,26,0,123,60,48,-1,2,45,-99.0,0,1,1,6
1001.0,26,0,123,60,48,-1,3,54,-99.0,0,1,1,6
1001.0,26,0,123,60,48,-1,4,40,0.31691,1,0,0,6
1001.0,26,0,123,60,48,-1,5,48,0.233817,1,0,0,6
1001.0,26,0,123,60,48,-1,6,45,0.234137,1,0,0,6
1001.0,26,0,123,60,48,-1,7,46,0.133695,0,0,0,6
1001.0,26,0,123,60,48,-1,8,46,0.1839,1,0,0,6
1001.0,26,0,123,60,48,-1,9,40,0.217908,1,0,0,6
1001.0,26,0,124,40,28,1,0,30,-99.0,1,1,1,6
1001.0,26,0,124,40,28,1,1,16,-99.0,1,1,1,6
1001.0,26,0,124,40,28,1,2,46,-99.0,0,1,1,6
1001.0,26,0,124,40,28,1,3,24,-99.0,1,1,1,6
1001.0,26,0,124,40,28,1,4,30,0.267406,0,0,0,6
1001.0,26,0,124,40,28,1,5,31,0.751407,0,0,0,6
1001.0,26,0,124,40,28,1,6,28,0.233838,1,0,0,6
1001.0,26,0,124,40,28,1,7,52,0.18359,0,0,0,6
1001.0,26,0,124,40,28,1,8,45,0.100338,0,0,0,6
1001.0,26,0,124,40,28,1,9,33,0.067431,0,0,0,6
1001.0,26,0,125,32,40,0,0,41,-99.0,0,1,1,6
1001.0,26,0,125,32,40,0,1,28,-99.0,0,1,1,6
1001.0,26,0,125,32,40,0,2,36,-99.0,1,1,1,6
1001.0,26,0,125,32,40,0,3,47,-99.0,1,1,1,6
1001.0,26,0,125,32,40,0,4,34,0.350946,1,0,0,6
1001.0,26,0,125,32,40,0,5,30,0.150161,0,0,0,6
1001.0,26,0,125,32,40,0,6,36,0.333955,1,0,0,6
1001.0,26,0,125,32,40,0,7,28,0.084314,0,0,0,6
1001.0,26,0,125,32,40,0,8,41,0.233901,1,0,0,6
1001.0,26,0,125,32,40,0,9,36,0.166915,1,0,0,6
1001.0,26,0,126,60,40,0,0,36,-99.0,1,1,1,1
1001.0,26,0,126,60,40,0,1,42,-99.0,1,1,1,1
1001.0,26,0,126,60,40,0,2,54,-99.0,0,1,1,1
1001.0,26,0,126,60,40,0,3,65,-99.0,0,1,1,1
1001.0,26,0,126,60,40,0,4,72,0.050436,0,0,0,1
1001.0,26,0,127,52,60,0,0,55,-99.0,0,1,1,6
1001.0,26,0,127,52,60,0,1,52,-99.0,1,1,1,6
1001.0,26,0,127,52,60,0,2,65,-99.0,0,1,1,6
1001.0,26,0,127,52,60,0,3,61,-99.0,1,1,1,6
1001.0,26,0,127,52,60,0,4,55,0.100407,0,0,0,6
1001.0,26,0,127,52,60,0,5,60,0.167029,1,0,0,6
1001.0,26,0,127,52,60,0,6,53,0.100399,0,0,0,6
1001.0,26,0,127,52,60,0,7,56,0.200396,1,0,0,6
1001.0,26,0,127,52,60,0,8,69,0.100228,1,0,0,6
1001.0,26,0,127,52,60,0,9,75,0.2505,1,0,0,6
1001.0,26,0,128,60,40,0,0,40,-99.0,1,1,1,1
1001.0,26,0,128,60,40,0,1,44,-99.0,1,1,1,1
1001.0,26,0,128,60,40,0,2,65,-99.0,0,1,1,1
1001.0,26,0,128,60,40,0,3,73,-99.0,0,1,1,1
1001.0,26,0,128,60,40,0,4,52,0.06709,0,0,0,1
1001.0,26,0,129,60,56,0,0,48,-99.0,0,1,1,6
1001.0,26,0,129,60,56,0,1,47,-99.0,1,1,1,6
1001.0,26,0,129,60,56,0,2,49,-99.0,1,1,1,6
1001.0,26,0,129,60,56,0,3,69,-99.0,0,1,1,6
1001.0,26,0,129,60,56,0,4,66,0.183791,0,0,0,6
1001.0,26,0,129,60,56,0,5,68,0.116887,1,0,0,6
1001.0,26,0,129,60,56,0,6,70,0.101447,0,0,0,6
1001.0,26,0,129,60,56,0,7,71,0.216997,0,0,0,6
1001.0,26,0,129,60,56,0,8,59,0.150329,0,0,0,6
1001.0,26,0,129,60,56,0,9,54,0.083761,0,0,0,6
1001.0,26,0,130,28,40,-1,0,40,-99.0,0,1,1,1
1001.0,26,0,130,28,40,-1,1,32,-99.0,1,1,1,1
1001.0,26,0,130,28,40,-1,2,26,-99.0,0,1,1,1
1001.0,26,0,130,28,40,-1,3,31,-99.0,0,1,1,1
1001.0,26,0,130,28,40,-1,4,35,0.367001,1,0,0,1
1001.0,26,0,131,40,32,-1,0,47,-99.0,0,1,1,6
1001.0,26,0,131,40,32,-1,1,26,-99.0,0,1,1,6
1001.0,26,0,131,40,32,-1,2,55,-99.0,0,1,1,6
1001.0,26,0,131,40,32,-1,3,31,-99.0,1,1,1,6
1001.0,26,0,131,40,32,-1,4,34,0.599955,1,0,0,6
1001.0,26,0,131,40,32,-1,5,40,0.283716,0,0,0,6
1001.0,26,0,131,40,32,-1,6,39,0.217022,1,0,0,6
1001.0,26,0,131,40,32,-1,7,44,0.333818,0,0,0,6
1001.0,26,0,131,40,32,-1,8,34,0.318001,1,0,0,6
1001.0,26,0,131,40,32,-1,9,27,0.150334,0,0,0,6
1001.0,26,0,132,60,56,-1,0,49,-99.0,0,1,1,1
1001.0,26,0,132,60,56,-1,1,51,-99.0,0,1,1,1
1001.0,26,0,132,60,56,-1,2,62,-99.0,1,1,1,1
1001.0,26,0,132,60,56,-1,3,63,-99.0,0,1,1,1
1001.0,26,0,132,60,56,-1,4,59,2.451494,1,0,0,1
1001.0,26,0,133,40,28,1,0,29,-99.0,0,1,1,1
1001.0,26,0,133,40,28,1,1,11,-99.0,1,1,1,1
1001.0,26,0,133,40,28,1,2,17,-99.0,1,1,1,1
1001.0,26,0,133,40,28,1,3,38,-99.0,1,1,1,1
1001.0,26,0,133,40,28,1,4,34,0.183463,0,0,0,1
1001.0,26,0,134,56,60,0,0,70,-99.0,1,1,1,1
1001.0,26,0,134,56,60,0,1,69,-99.0,0,1,1,1
1001.0,26,0,134,56,60,0,2,68,-99.0,1,1,1,1
1001.0,26,0,134,56,60,0,3,51,-99.0,0,1,1,1
1001.0,26,0,134,56,60,0,4,45,0.450995,1,0,0,1
1001.0,26,0,135,60,56,-1,0,36,-99.0,0,1,1,1
1001.0,26,0,135,60,56,-1,1,39,-99.0,0,1,1,1
1001.0,26,0,135,60,56,-1,2,39,-99.0,0,1,1,1
1001.0,26,0,135,60,56,-1,3,28,-99.0,1,1,1,1
1001.0,26,0,135,60,56,-1,4,38,1.083989,0,0,0,1
1001.0,26,0,136,56,60,0,0,56,-99.0,1,1,1,6
1001.0,26,0,136,56,60,0,1,54,-99.0,0,1,1,6
1001.0,26,0,136,56,60,0,2,49,-99.0,1,1,1,6
1001.0,26,0,136,56,60,0,3,49,-99.0,0,1,1,6
1001.0,26,0,136,56,60,0,4,37,0.59989,0,0,0,6
1001.0,26,0,136,56,60,0,5,64,0.150207,1,0,0,6
1001.0,26,0,136,56,60,0,6,71,0.117416,1,0,0,6
1001.0,26,0,136,56,60,0,7,59,0.23427,1,0,0,6
1001.0,26,0,136,56,60,0,8,63,0.150447,1,0,0,6
1001.0,26,0,136,56,60,0,9,65,0.15045,1,0,0,6
1001.0,26,0,137,36,40,0,0,38,-99.0,0,1,1,6
1001.0,26,0,137,36,40,0,1,33,-99.0,1,1,1,6
1001.0,26,0,137,36,40,0,2,43,-99.0,1,1,1,6
1001.0,26,0,137,36,40,0,3,45,-99.0,0,1,1,6
1001.0,26,0,137,36,40,0,4,26,0.367055,0,0,0,6
1001.0,26,0,137,36,40,0,5,27,0.734182,1,0,0,6
1001.0,26,0,137,36,40,0,6,24,0.10101,0,0,0,6
1001.0,26,0,137,36,40,0,7,42,0.150095,1,0,0,6
1001.0,26,0,137,36,40,0,8,41,0.117256,1,0,0,6
1001.0,26,0,137,36,40,0,9,33,0.18425,1,0,0,6
1001.0,26,0,138,36,40,1,0,50,-99.0,1,1,1,1
1001.0,26,0,138,36,40,1,1,35,-99.0,1,1,1,1
1001.0,26,0,138,36,40,1,2,55,-99.0,0,1,1,1
1001.0,26,0,138,36,40,1,3,54,-99.0,1,1,1,1
1001.0,26,0,138,36,40,1,4,39,0.851386,0,0,0,1
1001.0,26,0,139,40,32,0,0,35,-99.0,0,1,1,1
1001.0,26,0,139,40,32,0,1,30,-99.0,1,1,1,1
1001.0,26,0,139,40,32,0,2,42,-99.0,1,1,1,1
1001.0,26,0,139,40,32,0,3,39,-99.0,0,1,1,1
1001.0,26,0,139,40,32,0,4,36,1.767023,0,0,0,1
1001.0,26,0,140,60,48,0,0,50,-99.0,0,1,1,1
1001.0,26,0,140,60,48,0,1,55,-99.0,1,1,1,1
1001.0,26,0,140,60,48,0,2,71,-99.0,0,1,1,1
1001.0,26,0,140,60,48,0,3,35,-99.0,1,1,1,1
1001.0,26,0,140,60,48,0,4,65,0.166281,0,0,0,1
1001.0,26,0,141,40,20,-1,0,32,-99.0,0,1,1,6
1001.0,26,0,141,40,20,-1,1,38,-99.0,0,1,1,6
1001.0,26,0,141,40,20,-1,2,22,-99.0,1,1,1,6
1001.0,26,0,141,40,20,-1,3,52,-99.0,0,1,1,6
1001.0,26,0,141,40,20,-1,4,16,0.516866,1,0,0,6
1001.0,26,0,141,40,20,-1,5,39,0.116805,0,0,0,6
1001.0,26,0,141,40,20,-1,6,40,0.10067,0,0,0,6
1001.0,26,0,141,40,20,-1,7,32,0.06708,0,0,0,6
1001.0,26,0,141,40,20,-1,8,26,0.050454,1,0,0,6
1001.0,26,0,141,40,20,-1,9,39,0.150441,0,0,0,6
1001.0,26,0,142,20,40,1,0,26,-99.0,0,1,1,6
1001.0,26,0,142,20,40,1,1,34,-99.0,1,1,1,6
1001.0,26,0,142,20,40,1,2,41,-99.0,1,1,1,6
1001.0,26,0,142,20,40,1,3,34,-99.0,1,1,1,6
1001.0,26,0,142,20,40,1,4,24,0.067068,0,0,0,6
1001.0,26,0,142,20,40,1,5,37,0.100341,1,0,0,6
1001.0,26,0,142,20,40,1,6,13,0.550602,0,0,0,6
1001.0,26,0,142,20,40,1,7,47,0.18382,1,0,0,6
1001.0,26,0,142,20,40,1,8,34,0.050393,1,0,0,6
1001.0,26,0,142,20,40,1,9,43,0.017165,1,0,0,6
1001.0,26,0,143,60,52,1,0,59,-99.0,1,1,1,6
1001.0,26,0,143,60,52,1,1,59,-99.0,1,1,1,6
1001.0,26,0,143,60,52,1,2,51,-99.0,1,1,1,6
1001.0,26,0,143,60,52,1,3,69,-99.0,0,1,1,6
1001.0,26,0,143,60,52,1,4,56,0.317543,0,0,0,6
1001.0,26,0,143,60,52,1,5,56,0.183462,0,0,0,6
1001.0,26,0,143,60,52,1,6,60,0.250416,0,0,0,6
1001.0,26,0,143,60,52,1,7,67,0.267447,0,0,0,6
1001.0,26,0,143,60,52,1,8,51,0.617227,0,0,0,6
1001.0,26,0,143,60,52,1,9,52,0.150116,0,0,0,6
1001.0,26,0,144,48,60,1,0,63,-99.0,1,1,1,6
1001.0,26,0,144,48,60,1,1,64,-99.0,0,1,1,6
1001.0,26,0,144,48,60,1,2,55,-99.0,1,1,1,6
1001.0,26,0,144,48,60,1,3,40,-99.0,1,1,1,6
1001.0,26,0,144,48,60,1,4,56,0.733385,0,0,0,6
1001.0,26,0,144,48,60,1,5,64,0.368009,1,0,0,6
1001.0,26,0,144,48,60,1,6,50,0.300469,0,0,0,6
1001.0,26,0,144,48,60,1,7,67,0.100706,1,0,0,6
1001.0,26,0,144,48,60,1,8,66,0.166986,1,0,0,6
1001.0,26,0,144,48,60,1,9,58,0.100618,1,0,0,6
1001.0,26,0,145,36,40,0,0,32,-99.0,0,1,1,6
1001.0,26,0,145,36,40,0,1,37,-99.0,1,1,1,6
1001.0,26,0,145,36,40,0,2,38,-99.0,1,1,1,6
1001.0,26,0,145,36,40,0,3,27,-99.0,0,1,1,6
1001.0,26,0,145,36,40,0,4,44,0.149733,1,0,0,6
1001.0,26,0,145,36,40,0,5,30,0.167014,1,0,0,6
1001.0,26,0,145,36,40,0,6,34,0.03381,1,0,0,6
1001.0,26,0,145,36,40,0,7,37,0.36693,0,0,0,6
1001.0,26,0,145,36,40,0,8,43,0.184604,1,0,0,6
1001.0,26,0,145,36,40,0,9,47,0.066769,1,0,0,6
1001.0,26,0,146,40,60,1,0,64,-99.0,1,1,1,1
1001.0,26,0,146,40,60,1,1,55,-99.0,1,1,1,1
1001.0,26,0,146,40,60,1,2,39,-99.0,0,1,1,1
1001.0,26,0,146,40,60,1,3,57,-99.0,1,1,1,1
1001.0,26,0,146,40,60,1,4,71,0.05028,1,0,0,1
1001.0,26,0,147,40,36,1,0,31,-99.0,1,1,1,6
1001.0,26,0,147,40,36,1,1,30,-99.0,0,1,1,6
1001.0,26,0,147,40,36,1,2,37,-99.0,1,1,1,6
1001.0,26,0,147,40,36,1,3,50,-99.0,1,1,1,6
1001.0,26,0,147,40,36,1,4,38,1.567383,0,0,0,6
1001.0,26,0,147,40,36,1,5,38,0.033034,1,0,0,6
1001.0,26,0,147,40,36,1,6,54,0.017796,0,0,0,6
1001.0,26,0,147,40,36,1,7,37,0.016986,1,0,0,6
1001.0,26,0,147,40,36,1,8,41,0.033422,0,0,0,6
1001.0,26,0,147,40,36,1,9,31,0.133545,0,0,0,6
1001.0,26,0,148,36,40,-1,0,43,-99.0,1,1,1,1
1001.0,26,0,148,36,40,-1,1,43,-99.0,0,1,1,1
1001.0,26,0,148,36,40,-1,2,35,-99.0,0,1,1,1
1001.0,26,0,148,36,40,-1,3,41,-99.0,0,1,1,1
1001.0,26,0,148,36,40,-1,4,53,0.317879,1,0,0,1
1001.0,26,0,149,32,40,-1,0,30,-99.0,0,1,1,1
1001.0,26,0,149,32,40,-1,1,36,-99.0,1,1,1,1
1001.0,26,0,149,32,40,-1,2,25,-99.0,0,1,1,1
1001.0,26,0,149,32,40,-1,3,38,-99.0,0,1,1,1
1001.0,26,0,149,32,40,-1,4,44,0.450365,1,0,0,1
1001.0,26,0,150,60,56,1,0,66,-99.0,0,1,1,1
1001.0,26,0,150,60,56,1,1,57,-99.0,1,1,1,1
1001.0,26,0,150,60,56,1,2,64,-99.0,1,1,1,1
1001.0,26,0,150,60,56,1,3,43,-99.0,1,1,1,1
1001.0,26,0,150,60,56,1,4,56,0.883744,0,0,0,1
1001.0,26,0,151,52,60,0,0,65,-99.0,1,1,1,1
1001.0,26,0,151,52,60,0,1,53,-99.0,0,1,1,1
1001.0,26,0,151,52,60,0,2,71,-99.0,1,1,1,1
1001.0,26,0,151,52,60,0,3,65,-99.0,0,1,1,1
1001.0,26,0,151,52,60,0,4,55,0.334756,1,0,0,1
1001.0,26,0,152,40,20,1,0,21,-99.0,1,1,1,6
1001.0,26,0,152,40,20,1,1,46,-99.0,0,1,1,6
1001.0,26,0,152,40,20,1,2,13,-99.0,1,1,1,6
1001.0,26,0,152,40,20,1,3,20,-99.0,1,1,1,6
1001.0,26,0,152,40,20,1,4,37,0.017194,0,0,0,6
1001.0,26,0,152,40,20,1,5,31,0.234401,1,0,0,6
1001.0,26,0,152,40,20,1,6,49,0.167097,0,0,0,6
1001.0,26,0,152,40,20,1,7,51,0.183485,0,0,0,6
1001.0,26,0,152,40,20,1,8,39,0.117227,0,0,0,6
1001.0,26,0,152,40,20,1,9,32,0.367074,0,0,0,6
1001.0,26,0,153,60,56,0,0,62,-99.0,0,1,1,1
1001.0,26,0,153,60,56,0,1,69,-99.0,0,1,1,1
1001.0,26,0,153,60,56,0,2,56,-99.0,1,1,1,1
1001.0,26,0,153,60,56,0,3,58,-99.0,1,1,1,1
1001.0,26,0,153,60,56,0,4,58,0.067135,0,0,0,1
1001.0,26,0,154,60,48,0,0,61,-99.0,0,1,1,6
1001.0,26,0,154,60,48,0,1,55,-99.0,1,1,1,6
1001.0,26,0,154,60,48,0,2,57,-99.0,0,1,1,6
1001.0,26,0,154,60,48,0,3,33,-99.0,1,1,1,6
1001.0,26,0,154,60,48,0,4,58,0.233897,0,0,0,6
1001.0,26,0,154,60,48,0,5,57,0.483812,1,0,0,6
1001.0,26,0,154,60,48,0,6,71,0.11738,0,0,0,6
1001.0,26,0,154,60,48,0,7,60,0.03464,0,0,0,6
1001.0,26,0,154,60,48,0,8,60,0.18389,0,0,0,6
1001.0,26,0,154,60,48,0,9,62,0.050607,0,0,0,6
1001.0,26,0,155,40,36,-1,0,29,-99.0,1,1,1,6
1001.0,26,0,155,40,36,-1,1,41,-99.0,0,1,1,6
1001.0,26,0,155,40,36,-1,2,39,-99.0,0,1,1,6
1001.0,26,0,155,40,36,-1,3,44,-99.0,0,1,1,6
1001.0,26,0,155,40,36,-1,4,44,0.250407,0,0,0,6
1001.0,26,0,155,40,36,-1,5,52,0.201699,1,0,0,6
1001.0,26,0,155,40,36,-1,6,30,0.467074,1,0,0,6
1001.0,26,0,155,40,36,-1,7,29,0.050164,0,0,0,6
1001.0,26,0,155,40,36,-1,8,35,0.033627,1,0,0,6
1001.0,26,0,155,40,36,-1,9,40,0.250886,0,0,0,6
1001.0,26,0,156,60,52,0,0,69,-99.0,0,1,1,1
1001.0,26,0,156,60,52,0,1,58,-99.0,0,1,1,1
1001.0,26,0,156,60,52,0,2,54,-99.0,1,1,1,1
1001.0,26,0,156,60,52,0,3,49,-99.0,1,1,1,1
1001.0,26,0,156,60,52,0,4,51,0.167226,0,0,0,1
1001.0,26,0,157,60,56,0,0,61,-99.0,0,1,1,1
1001.0,26,0,157,60,56,0,1,64,-99.0,0,1,1,1
1001.0,26,0,157,60,56,0,2,64,-99.0,1,1,1,1
1001.0,26,0,157,60,56,0,3,69,-99.0,1,1,1,1
1001.0,26,0,157,60,56,0,4,58,0.367152,1,0,0,1
1001.0,26,0,158,40,32,-1,0,40,-99.0,0,1,1,1
1001.0,26,0,158,40,32,-1,1,30,-99.0,1,1,1,1
1001.0,26,0,158,40,32,-1,2,45,-99.0,0,1,1,1
1001.0,26,0,158,40,32,-1,3,26,-99.0,0,1,1,1
1001.0,26,0,158,40,32,-1,4,54,0.266603,0,0,0,1
1001.0,26,0,159,28,40,1,0,24,-99.0,0,1,1,1
1001.0,26,0,159,28,40,1,1,45,-99.0,1,1,1,1
1001.0,26,0,159,28,40,1,2,35,-99.0,1,1,1,1
1001.0,26,0,159,28,40,1,3,50,-99.0,1,1,1,1
1001.0,26,0,159,28,40,1,4,50,0.300117,1,0,0,1
1002.0,26,0,0,40,32,1,0,51,-99.0,0,1,1,1
1002.0,26,1,0,40,32,1,0,51,-99.0,0,1,1,1
1002.0,26,0,0,40,32,1,1,47,-99.0,1,1,1,1
1002.0,26,1,0,40,32,1,1,47,-99.0,1,1,1,1
1002.0,26,0,0,40,32,1,2,33,-99.0,1,1,1,1
1002.0,26,1,0,40,32,1,2,33,-99.0,1,1,1,1
1002.0,26,0,0,40,32,1,3,18,-99.0,1,1,1,1
1002.0,26,1,0,40,32,1,3,18,-99.0,1,1,1,1
1002.0,26,0,0,40,32,1,4,55,1.584147,0,0,0,1
1002.0,26,1,0,40,32,1,4,55,0.300295,0,0,0,1
1002.0,26,0,1,60,48,1,0,52,-99.0,1,1,1,1
1002.0,26,1,1,60,48,1,0,52,-99.0,1,1,1,1
1002.0,26,0,1,60,48,1,1,49,-99.0,0,1,1,1
1002.0,26,1,1,60,48,1,1,49,-99.0,0,1,1,1
1002.0,26,0,1,60,48,1,2,53,-99.0,1,1,1,1
1002.0,26,1,1,60,48,1,2,53,-99.0,1,1,1,1
1002.0,26,0,1,60,48,1,3,44,-99.0,1,1,1,1
1002.0,26,1,1,60,48,1,3,44,-99.0,1,1,1,1
1002.0,26,0,1,60,48,1,4,65,4.515373,0,0,0,1
1002.0,26,1,1,60,48,1,4,65,1.433616,0,0,0,1
1002.0,26,0,2,40,20,-1,0,49,-99.0,0,1,1,1
1002.0,26,1,2,40,20,-1,0,49,-99.0,0,1,1,1
1002.0,26,0,2,40,20,-1,1,45,-99.0,0,1,1,1
1002.0,26,1,2,40,20,-1,1,45,-99.0,0,1,1,1
1002.0,26,0,2,40,20,-1,2,22,-99.0,1,1,1,1
1002.0,26,1,2,40,20,-1,2,22,-99.0,1,1,1,1
1002.0,26,0,2,40,20,-1,3,28,-99.0,0,1,1,1
1002.0,26,1,2,40,20,-1,3,28,-99.0,0,1,1,1
1002.0,26,0,2,40,20,-1,4,30,0.467112,0,0,0,1
1002.0,26,1,2,40,20,-1,4,30,0.267387,0,0,0,1
1002.0,26,0,3,36,40,0,0,32,-99.0,0,1,1,1
1002.0,26,1,3,36,40,0,0,32,-99.0,0,1,1,1
1002.0,26,0,3,36,40,0,1,31,-99.0,0,1,1,1
1002.0,26,1,3,36,40,0,1,31,-99.0,0,1,1,1
1002.0,26,0,3,36,40,0,2,40,-99.0,1,1,1,1
1002.0,26,1,3,36,40,0,2,40,-99.0,1,1,1,1
1002.0,26,0,3,36,40,0,3,21,-99.0,1,1,1,1
1002.0,26,1,3,36,40,0,3,21,-99.0,1,1,1,1
1002.0,26,0,3,36,40,0,4,33,1.666435,0,0,0,1
1002.0,26,1,3,36,40,0,4,33,1.50039,0,0,0,1
1002.0,26,0,4,60,52,1,0,52,-99.0,1,1,1,1
1002.0,26,1,4,60,52,1,0,52,-99.0,1,1,1,1
1002.0,26,0,4,60,52,1,1,46,-99.0,1,1,1,1
1002.0,26,1,4,60,52,1,1,46,-99.0,1,1,1,1
1002.0,26,0,4,60,52,1,2,67,-99.0,0,1,1,1
1002.0,26,1,4,60,52,1,2,67,-99.0,0,1,1,1
1002.0,26,0,4,60,52,1,3,54,-99.0,1,1,1,1
1002.0,26,1,4,60,52,1,3,54,-99.0,1,1,1,1
1002.0,26,0,4,60,52,1,4,56,0.767071,0,0,0,1
1002.0,26,1,4,60,52,1,4,56,0.300163,0,0,0,1
1002.0,26,0,5,60,40,0,0,38,-99.0,1,1,1,6
1002.0,26,1,5,60,40,0,0,38,-99.0,1,1,1,6
1002.0,26,0,5,60,40,0,1,68,-99.0,0,1,1,6
1002.0,26,1,5,60,40,0,1,68,-99.0,0,1,1,6
1002.0,26,0,5,60,40,0,2,56,-99.0,0,1,1,6
1002.0,26,1,5,60,40,0,2,56,-99.0,0,1,1,6
1002.0,26,0,5,60,40,0,3,27,-99.0,1,1,1,6
1002.0,26,1,5,60,40,0,3,27,-99.0,1,1,1,6
1002.0,26,0,5,60,40,0,4,64,0.484192,0,0,0,6
1002.0,26,1,5,60,40,0,4,64,0.316834,0,0,0,6
1002.0,26,0,5,60,40,0,5,34,0.883398,1,0,0,6
1002.0,26,1,5,60,40,0,5,62,0.200125,0,0,0,6
1002.0,26,0,5,60,40,0,6,67,1.966722,0,0,0,6
1002.0,26,1,5,60,40,0,6,67,0.03355,0,0,0,6
1002.0,26,0,5,60,40,0,7,51,3.416921,1,0,0,6
1002.0,26,1,5,60,40,0,7,63,0.067292,0,0,0,6
1002.0,26,0,5,60,40,0,8,55,2.750404,0,0,0,6
1002.0,26,1,5,60,40,0,8,55,0.133732,0,0,0,6
1002.0,26,0,5,60,40,0,9,59,0.583533,0,0,0,6
1002.0,26,1,5,60,40,0,9,59,0.583565,0,0,0,6
1002.0,26,0,6,40,28,-1,0,35,-99.0,0,1,1,1
1002.0,26,1,6,40,28,-1,0,35,-99.0,0,1,1,1
1002.0,26,0,6,40,28,-1,1,58,-99.0,0,1,1,1
1002.0,26,1,6,40,28,-1,1,58,-99.0,0,1,1,1
1002.0,26,0,6,40,28,-1,2,36,-99.0,0,1,1,1
1002.0,26,1,6,40,28,-1,2,36,-99.0,0,1,1,1
1002.0,26,0,6,40,28,-1,3,28,-99.0,1,1,1,1
1002.0,26,1,6,40,28,-1,3,28,-99.0,1,1,1,1
1002.0,26,0,6,40,28,-1,4,24,3.83464,0,0,0,1
1002.0,26,1,6,40,28,-1,4,24,1.117137,0,0,0,1
1002.0,26,0,7,28,40,0,0,30,-99.0,0,1,1,6
1002.0,26,1,7,28,40,0,0,30,-99.0,0,1,1,6
1002.0,26,0,7,28,40,0,1,46,-99.0,1,1,1,6
1002.0,26,1,7,28,40,0,1,46,-99.0,1,1,1,6
1002.0,26,0,7,28,40,0,2,31,-99.0,0,1,1,6
1002.0,26,1,7,28,40,0,2,31,-99.0,0,1,1,6
1002.0,26,0,7,28,40,0,3,48,-99.0,1,1,1,6
1002.0,26,1,7,28,40,0,3,48,-99.0,1,1,1,6
1002.0,26,0,7,28,40,0,4,32,0.933769,0,0,0,6
1002.0,26,1,7,28,40,0,4,59,0.167343,1,0,0,6
1002.0,26,0,7,28,40,0,5,31,0.866505,0,0,0,6
1002.0,26,1,7,28,40,0,5,27,0.33356,1,0,0,6
1002.0,26,0,7,28,40,0,6,15,0.633874,1,0,0,6
1002.0,26,1,7,28,40,0,6,15,0.050466,1,0,0,6
1002.0,26,0,7,28,40,0,7,30,0.383592,0,0,0,6
1002.0,26,1,7,28,40,0,7,39,0.017068,1,0,0,6
1002.0,26,0,7,28,40,0,8,24,3.816748,0,0,0,6
1002.0,26,1,7,28,40,0,8,49,0.100391,1,0,0,6
1002.0,26,0,7,28,40,0,9,24,0.700307,0,0,0,6
1002.0,26,1,7,28,40,0,9,31,0.316917,1,0,0,6
1002.0,26,0,8,20,40,0,0,40,-99.0,1,1,1,6
1002.0,26,1,8,20,40,0,0,40,-99.0,1,1,1,6
1002.0,26,0,8,20,40,0,1,48,-99.0,1,1,1,6
1002.0,26,1,8,20,40,0,1,48,-99.0,1,1,1,6
1002.0,26,0,8,20,40,0,2,20,-99.0,0,1,1,6
1002.0,26,1,8,20,40,0,2,20,-99.0,0,1,1,6
1002.0,26,0,8,20,40,0,3,16,-99.0,0,1,1,6
1002.0,26,1,8,20,40,0,3,16,-99.0,0,1,1,6
1002.0,26,0,8,20,40,0,4,41,1.183839,1,0,0,6
1002.0,26,1,8,20,40,0,4,41,0.283778,1,0,0,6
1002.0,26,0,8,20,40,0,5,54,1.417104,1,0,0,6
1002.0,26,1,8,20,40,0,5,54,0.166928,1,0,0,6
1002.0,26,0,8,20,40,0,6,42,0.500738,1,0,0,6
1002.0,26,1,8,20,40,0,6,42,0.183232,1,0,0,6
1002.0,26,0,8,20,40,0,7,15,0.234096,1,0,0,6
1002.0,26,1,8,20,40,0,7,15,0.133704,1,0,0,6
1002.0,26,0,8,20,40,0,8,36,0.367081,1,0,0,6
1002.0,26,1,8,20,40,0,8,36,0.01718,1,0,0,6
1002.0,26,0,8,20,40,0,9,45,0.200464,1,0,0,6
1002.0,26,1,8,20,40,0,9,45,0.45025,1,0,0,6
1002.0,26,0,9,40,20,-1,0,40,-99.0,0,1,1,1
1002.0,26,1,9,40,20,-1,0,40,-99.0,0,1,1,1
1002.0,26,0,9,40,20,-1,1,45,-99.0,0,1,1,1
1002.0,26,1,9,40,20,-1,1,45,-99.0,0,1,1,1
1002.0,26,0,9,40,20,-1,2,16,-99.0,1,1,1,1
1002.0,26,1,9,40,20,-1,2,16,-99.0,1,1,1,1
1002.0,26,0,9,40,20,-1,3,30,-99.0,0,1,1,1
1002.0,26,1,9,40,20,-1,3,30,-99.0,0,1,1,1
1002.0,26,0,9,40,20,-1,4,44,1.900477,0,0,0,1
1002.0,26,1,9,40,20,-1,4,44,1.200359,0,0,0,1
1002.0,26,0,10,40,32,1,0,49,-99.0,0,1,1,6
1002.0,26,1,10,40,32,1,0,49,-99.0,0,1,1,6
1002.0,26,0,10,40,32,1,1,30,-99.0,1,1,1,6
1002.0,26,1,10,40,32,1,1,30,-99.0,1,1,1,6
1002.0,26,0,10,40,32,1,2,25,-99.0,1,1,1,6
1002.0,26,1,10,40,32,1,2,25,-99.0,1,1,1,6
1002.0,26,0,10,40,32,1,3,32,-99.0,1,1,1,6
1002.0,26,1,10,40,32,1,3,32,-99.0,1,1,1,6
1002.0,26,0,10,40,32,1,4,30,2.050232,0,0,0,6
1002.0,26,1,10,40,32,1,4,30,0.516839,0,0,0,6
1002.0,26,0,10,40,32,1,5,27,0.734118,1,0,0,6
1002.0,26,1,10,40,32,1,5,42,1.133474,0,0,0,6
1002.0,26,0,10,40,32,1,6,35,0.167164,0,0,0,6
1002.0,26,1,10,40,32,1,6,35,0.083371,0,0,0,6
1002.0,26,0,10,40,32,1,7,34,0.500414,1,0,0,6
1002.0,26,1,10,40,32,1,7,36,0.066794,0,0,0,6
1002.0,26,0,10,40,32,1,8,52,0.184031,0,0,0,6
1002.0,26,1,10,40,32,1,8,52,0.117405,0,0,0,6
1002.0,26,0,10,40,32,1,9,36,0.449967,0,0,0,6
1002.0,26,1,10,40,32,1,9,36,0.316911,0,0,0,6
1002.0,26,0,11,60,48,0,0,51,-99.0,1,1,1,6
1002.0,26,1,11,60,48,0,0,51,-99.0,1,1,1,6
1002.0,26,0,11,60,48,0,1,58,-99.0,0,1,1,6
1002.0,26,1,11,60,48,0,1,58,-99.0,0,1,1,6
1002.0,26,0,11,60,48,0,2,65,-99.0,1,1,1,6
1002.0,26,1,11,60,48,0,2,65,-99.0,1,1,1,6
1002.0,26,0,11,60,48,0,3,63,-99.0,0,1,1,6
1002.0,26,1,11,60,48,0,3,63,-99.0,0,1,1,6
1002.0,26,0,11,60,48,0,4,60,0.333565,0,0,0,6
1002.0,26,1,11,60,48,0,4,60,0.217019,0,0,0,6
1002.0,26,0,11,60,48,0,5,44,1.083259,1,0,0,6
1002.0,26,1,11,60,48,0,5,64,0.083997,0,0,0,6
1002.0,26,0,11,60,48,0,6,65,0.183747,0,0,0,6
1002.0,26,1,11,60,48,0,6,65,0.116879,0,0,0,6
1002.0,26,0,11,60,48,0,7,61,0.333827,0,0,0,6
1002.0,26,1,11,60,48,0,7,61,0.400416,0,0,0,6
1002.0,26,0,11,60,48,0,8,56,0.217789,0,0,0,6
1002.0,26,1,11,60,48,0,8,56,0.033792,0,0,0,6
1002.0,26,0,11,60,48,0,9,60,0.100423,0,0,0,6
1002.0,26,1,11,60,48,0,9,60,0.38393,0,0,0,6
1002.0,26,0,12,28,40,-1,0,34,-99.0,0,1,1,6
1002.0,26,1,12,28,40,-1,0,34,-99.0,0,1,1,6
1002.0,26,0,12,28,40,-1,1,21,-99.0,0,1,1,6
1002.0,26,1,12,28,40,-1,1,21,-99.0,0,1,1,6
1002.0,26,0,12,28,40,-1,2,22,-99.0,0,1,1,6
1002.0,26,1,12,28,40,-1,2,22,-99.0,0,1,1,6
1002.0,26,0,12,28,40,-1,3,35,-99.0,1,1,1,6
1002.0,26,1,12,28,40,-1,3,35,-99.0,1,1,1,6
1002.0,26,0,12,28,40,-1,4,12,1.882748,0,0,0,6
1002.0,26,1,12,28,40,-1,4,41,0.283706,1,0,0,6
1002.0,26,0,12,28,40,-1,5,44,0.167086,1,0,0,6
1002.0,26,1,12,28,40,-1,5,44,0.067294,1,0,0,6
1002.0,26,0,12,28,40,-1,6,33,0.2005,1,0,0,6
1002.0,26,1,12,28,40,-1,6,33,0.26711,1,0,0,6
1002.0,26,0,12,28,40,-1,7,36,0.216266,1,0,0,6
1002.0,26,1,12,28,40,-1,7,36,0.083766,1,0,0,6
1002.0,26,0,12,28,40,-1,8,43,0.267058,1,0,0,6
1002.0,26,1,12,28,40,-1,8,43,0.117086,1,0,0,6
1002.0,26,0,12,28,40,-1,9,48,0.21712,1,0,0,6
1002.0,26,1,12,28,40,-1,9,48,0.150612,1,0,0,6
1002.0,26,0,13,28,40,0,0,31,-99.0,1,1,1,1
1002.0,26,1,13,28,40,0,0,31,-99.0,1,1,1,1
1002.0,26,0,13,28,40,0,1,47,-99.0,1,1,1,1
1002.0,26,1,13,28,40,0,1,47,-99.0,1,1,1,1
1002.0,26,0,13,28,40,0,2,19,-99.0,0,1,1,1
1002.0,26,1,13,28,40,0,2,19,-99.0,0,1,1,1
1002.0,26,0,13,28,40,0,3,29,-99.0,0,1,1,1
1002.0,26,1,13,28,40,0,3,29,-99.0,0,1,1,1
1002.0,26,0,13,28,40,0,4,46,0.500347,1,0,0,1
1002.0,26,1,13,28,40,0,4,46,0.31657,1,0,0,1
1002.0,26,0,14,36,40,1,0,44,-99.0,1,1,1,6
1002.0,26,1,14,36,40,1,0,44,-99.0,1,1,1,6
1002.0,26,0,14,36,40,1,1,36,-99.0,0,1,1,6
1002.0,26,1,14,36,40,1,1,36,-99.0,0,1,1,6
1002.0,26,0,14,36,40,1,2,38,-99.0,1,1,1,6
1002.0,26,1,14,36,40,1,2,38,-99.0,1,1,1,6
1002.0,26,0,14,36,40,1,3,35,-99.0,1,1,1,6
1002.0,26,1,14,36,40,1,3,35,-99.0,1,1,1,6
1002.0,26,0,14,36,40,1,4,37,1.584746,1,0,0,6
1002.0,26,1,14,36,40,1,4,26,0.53378,0,0,0,6
1002.0,26,0,14,36,40,1,5,28,0.417217,0,0,0,6
1002.0,26,1,14,36,40,1,5,40,0.150407,1,0,0,6
1002.0,26,0,14,36,40,1,6,47,0.500414,1,0,0,6
1002.0,26,1,14,36,40,1,6,47,0.267085,1,0,0,6
1002.0,26,0,14,36,40,1,7,35,0.199777,0,0,0,6
1002.0,26,1,14,36,40,1,7,39,0.183663,1,0,0,6
1002.0,26,0,14,36,40,1,8,40,0.05035,1,0,0,6
1002.0,26,1,14,36,40,1,8,40,0.317112,1,0,0,6
1002.0,26,0,14,36,40,1,9,44,0.46687,1,0,0,6
1002.0,26,1,14,36,40,1,9,44,0.300919,1,0,0,6
1002.0,26,0,15,60,48,1,0,62,-99.0,1,1,1,6
1002.0,26,1,15,60,48,1,0,62,-99.0,1,1,1,6
1002.0,26,0,15,60,48,1,1,50,-99.0,1,1,1,6
1002.0,26,1,15,60,48,1,1,50,-99.0,1,1,1,6
1002.0,26,0,15,60,48,1,2,36,-99.0,1,1,1,6
1002.0,26,1,15,60,48,1,2,36,-99.0,1,1,1,6
1002.0,26,0,15,60,48,1,3,57,-99.0,0,1,1,6
1002.0,26,1,15,60,48,1,3,57,-99.0,0,1,1,6
1002.0,26,0,15,60,48,1,4,38,1.650615,1,0,0,6
1002.0,26,1,15,60,48,1,4,68,0.250391,0,0,0,6
1002.0,26,0,15,60,48,1,5,66,0.050576,0,0,0,6
1002.0,26,1,15,60,48,1,5,66,0.100413,0,0,0,6
1002.0,26,0,15,60,48,1,6,61,0.099864,0,0,0,6
1002.0,26,1,15,60,48,1,6,61,0.100696,0,0,0,6
1002.0,26,0,15,60,48,1,7,50,0.216844,0,0,0,6
1002.0,26,1,15,60,48,1,7,50,0.283852,0,0,0,6
1002.0,26,0,15,60,48,1,8,54,0.46681,0,0,0,6
1002.0,26,1,15,60,48,1,8,54,0.333705,0,0,0,6
1002.0,26,0,15,60,48,1,9,56,0.366704,0,0,0,6
1002.0,26,1,15,60,48,1,9,56,0.217336,0,0,0,6
1002.0,26,0,16,36,40,0,0,43,-99.0,0,1,1,6
1002.0,26,1,16,36,40,0,0,43,-99.0,0,1,1,6
1002.0,26,0,16,36,40,0,1,30,-99.0,0,1,1,6
1002.0,26,1,16,36,40,0,1,30,-99.0,0,1,1,6
1002.0,26,0,16,36,40,0,2,32,-99.0,1,1,1,6
1002.0,26,1,16,36,40,0,2,32,-99.0,1,1,1,6
1002.0,26,0,16,36,40,0,3,38,-99.0,1,1,1,6
1002.0,26,1,16,36,40,0,3,38,-99.0,1,1,1,6
1002.0,26,0,16,36,40,0,4,46,0.467121,0,0,0,6
1002.0,26,1,16,36,40,0,4,46,0.183708,0,0,0,6
1002.0,26,0,16,36,40,0,5,55,0.250471,1,0,0,6
1002.0,26,1,16,36,40,0,5,35,0.117193,0,0,0,6
1002.0,26,0,16,36,40,0,6,35,0.067252,0,0,0,6
1002.0,26,1,16,36,40,0,6,35,0.198507,0,0,0,6
1002.0,26,0,16,36,40,0,7,39,0.450274,1,0,0,6
1002.0,26,1,16,36,40,0,7,45,0.08374,0,0,0,6
1002.0,26,0,16,36,40,0,8,20,0.817048,1,0,0,6
1002.0,26,1,16,36,40,0,8,37,0.217108,0,0,0,6
1002.0,26,0,16,36,40,0,9,36,0.017048,0,0,0,6
1002.0,26,1,16,36,40,0,9,36,0.183499,0,0,0,6
1002.0,26,0,17,60,52,0,0,56,-99.0,1,1,1,1
1002.0,26,1,17,60,52,0,0,56,-99.0,1,1,1,1
1002.0,26,0,17,60,52,0,1,52,-99.0,1,1,1,1
1002.0,26,1,17,60,52,0,1,52,-99.0,1,1,1,1
1002.0,26,0,17,60,52,0,2,56,-99.0,0,1,1,1
1002.0,26,1,17,60,52,0,2,56,-99.0,0,1,1,1
1002.0,26,0,17,60,52,0,3,55,-99.0,0,1,1,1
1002.0,26,1,17,60,52,0,3,55,-99.0,0,1,1,1
1002.0,26,0,17,60,52,0,4,40,1.800437,1,0,0,1
1002.0,26,1,17,60,52,0,4,52,0.083824,0,0,0,1
1002.0,26,0,18,60,52,0,0,62,-99.0,0,1,1,6
1002.0,26,1,18,60,52,0,0,62,-99.0,0,1,1,6
1002.0,26,0,18,60,52,0,1,45,-99.0,0,1,1,6
1002.0,26,1,18,60,52,0,1,45,-99.0,0,1,1,6
1002.0,26,0,18,60,52,0,2,44,-99.0,1,1,1,6
1002.0,26,1,18,60,52,0,2,44,-99.0,1,1,1,6
1002.0,26,0,18,60,52,0,3,48,-99.0,1,1,1,6
1002.0,26,1,18,60,52,0,3,48,-99.0,1,1,1,6
1002.0,26,0,18,60,52,0,4,65,2.050229,0,0,0,6
1002.0,26,1,18,60,52,0,4,65,0.265925,0,0,0,6
1002.0,26,0,18,60,52,0,5,56,1.483544,1,0,0,6
1002.0,26,1,18,60,52,0,5,54,0.217159,0,0,0,6
1002.0,26,0,18,60,52,0,6,73,0.399999,0,0,0,6
1002.0,26,1,18,60,52,0,6,73,0.166907,0,0,0,6
1002.0,26,0,18,60,52,0,7,62,0.317442,0,0,0,6
1002.0,26,1,18,60,52,0,7,62,0.233766,0,0,0,6
1002.0,26,0,18,60,52,0,8,75,0.433108,0,0,0,6
1002.0,26,1,18,60,52,0,8,75,0.05027,0,0,0,6
1002.0,26,0,18,60,52,0,9,60,0.199894,0,0,0,6
1002.0,26,1,18,60,52,0,9,60,0.133342,0,0,0,6
1002.0,26,0,19,52,60,0,0,51,-99.0,1,1,1,6
1002.0,26,1,19,52,60,0,0,51,-99.0,1,1,1,6
1002.0,26,0,19,52,60,0,1,39,-99.0,0,1,1,6
1002.0,26,1,19,52,60,0,1,39,-99.0,0,1,1,6
1002.0,26,0,19,52,60,0,2,42,-99.0,0,1,1,6
1002.0,26,1,19,52,60,0,2,42,-99.0,0,1,1,6
1002.0,26,0,19,52,60,0,3,32,-99.0,1,1,1,6
1002.0,26,1,19,52,60,0,3,32,-99.0,1,1,1,6
1002.0,26,0,19,52,60,0,4,30,0.58378,0,0,0,6
1002.0,26,1,19,52,60,0,4,30,0.249963,0,0,0,6
1002.0,26,0,19,52,60,0,5,56,0.21699,1,0,0,6
1002.0,26,1,19,52,60,0,5,23,0.333802,0,0,0,6
1002.0,26,0,19,52,60,0,6,35,0.283754,1,0,0,6
1002.0,26,1,19,52,60,0,6,50,0.150116,0,0,0,6
1002.0,26,0,19,52,60,0,7,25,0.100539,0,0,0,6
1002.0,26,1,19,52,60,0,7,25,0.05034,0,0,0,6
1002.0,26,0,19,52,60,0,8,30,0.266765,1,0,0,6
1002.0,26,1,19,52,60,0,8,28,0.150565,0,0,0,6
1002.0,26,0,19,52,60,0,9,45,0.417213,1,0,0,6
1002.0,26,1,19,52,60,0,9,24,0.050385,0,0,0,6
1002.0,26,0,20,20,40,-1,0,18,-99.0,0,1,1,6
1002.0,26,1,20,20,40,-1,0,18,-99.0,0,1,1,6
1002.0,26,0,20,20,40,-1,1,36,-99.0,1,1,1,6
1002.0,26,1,20,20,40,-1,1,36,-99.0,1,1,1,6
1002.0,26,0,20,20,40,-1,2,24,-99.0,0,1,1,6
1002.0,26,1,20,20,40,-1,2,24,-99.0,0,1,1,6
1002.0,26,0,20,20,40,-1,3,15,-99.0,0,1,1,6
1002.0,26,1,20,20,40,-1,3,15,-99.0,0,1,1,6
1002.0,26,0,20,20,40,-1,4,22,0.350431,1,0,0,6
1002.0,26,1,20,20,40,-1,4,22,0.267248,1,0,0,6
1002.0,26,0,20,20,40,-1,5,33,0.200177,0,0,0,6
1002.0,26,1,20,20,40,-1,5,40,0.266985,1,0,0,6
1002.0,26,0,20,20,40,-1,6,52,0.216911,1,0,0,6
1002.0,26,1,20,20,40,-1,6,52,0.117158,1,0,0,6
1002.0,26,0,20,20,40,-1,7,34,0.167432,1,0,0,6
1002.0,26,1,20,20,40,-1,7,34,0.017115,1,0,0,6
1002.0,26,0,20,20,40,-1,8,13,0.28369,0,0,0,6
1002.0,26,1,20,20,40,-1,8,53,0.017327,1,0,0,6
1002.0,26,0,20,20,40,-1,9,53,0.117175,1,0,0,6
1002.0,26,1,20,20,40,-1,9,53,0.500392,1,0,0,6
1002.0,26,0,21,28,40,1,0,44,-99.0,1,1,1,6
1002.0,26,1,21,28,40,1,0,44,-99.0,1,1,1,6
1002.0,26,0,21,28,40,1,1,26,-99.0,1,1,1,6
1002.0,26,1,21,28,40,1,1,26,-99.0,1,1,1,6
1002.0,26,0,21,28,40,1,2,30,-99.0,0,1,1,6
1002.0,26,1,21,28,40,1,2,30,-99.0,0,1,1,6
1002.0,26,0,21,28,40,1,3,36,-99.0,1,1,1,6
1002.0,26,1,21,28,40,1,3,36,-99.0,1,1,1,6
1002.0,26,0,21,28,40,1,4,30,0.033449,0,0,0,6
1002.0,26,1,21,28,40,1,4,30,0.533562,0,0,0,6
1002.0,26,0,21,28,40,1,5,49,0.233742,1,0,0,6
1002.0,26,1,21,28,40,1,5,49,0.117108,1,0,0,6
1002.0,26,0,21,28,40,1,6,34,0.033809,1,0,0,6
1002.0,26,1,21,28,40,1,6,34,0.400351,1,0,0,6
1002.0,26,0,21,28,40,1,7,21,0.100624,0,0,0,6
1002.0,26,1,21,28,40,1,7,52,0.117188,1,0,0,6
1002.0,26,0,21,28,40,1,8,45,0.36641,1,0,0,6
1002.0,26,1,21,28,40,1,8,45,0.183522,1,0,0,6
1002.0,26,0,21,28,40,1,9,37,0.200428,1,0,0,6
1002.0,26,1,21,28,40,1,9,37,0.166838,1,0,0,6
1002.0,26,0,22,40,32,0,0,35,-99.0,0,1,1,1
1002.0,26,1,22,40,32,0,0,35,-99.0,0,1,1,1
1002.0,26,0,22,40,32,0,1,38,-99.0,1,1,1,1
1002.0,26,1,22,40,32,0,1,38,-99.0,1,1,1,1
1002.0,26,0,22,40,32,0,2,36,-99.0,0,1,1,1
1002.0,26,1,22,40,32,0,2,36,-99.0,0,1,1,1
1002.0,26,0,22,40,32,0,3,28,-99.0,1,1,1,1
1002.0,26,1,22,40,32,0,3,28,-99.0,1,1,1,1
1002.0,26,0,22,40,32,0,4,47,0.367551,0,0,0,1
1002.0,26,1,22,40,32,0,4,47,0.167156,0,0,0,1
1002.0,26,0,23,40,60,0,0,35,-99.0,0,1,1,1
1002.0,26,1,23,40,60,0,0,35,-99.0,0,1,1,1
1002.0,26,0,23,40,60,0,1,53,-99.0,1,1,1,1
1002.0,26,1,23,40,60,0,1,53,-99.0,1,1,1,1
1002.0,26,0,23,40,60,0,2,59,-99.0,1,1,1,1
1002.0,26,1,23,40,60,0,2,59,-99.0,1,1,1,1
1002.0,26,0,23,40,60,0,3,24,-99.0,0,1,1,1
1002.0,26,1,23,40,60,0,3,24,-99.0,0,1,1,1
1002.0,26,0,23,40,60,0,4,70,0.450373,1,0,0,1
1002.0,26,1,23,40,60,0,4,70,0.033713,1,0,0,1
1002.0,26,0,24,60,40,0,0,41,-99.0,1,1,1,1
1002.0,26,1,24,60,40,0,0,41,-99.0,1,1,1,1
1002.0,26,0,24,60,40,0,1,58,-99.0,0,1,1,1
1002.0,26,1,24,60,40,0,1,58,-99.0,0,1,1,1
1002.0,26,0,24,60,40,0,2,40,-99.0,1,1,1,1
1002.0,26,1,24,60,40,0,2,40,-99.0,1,1,1,1
1002.0,26,0,24,60,40,0,3,55,-99.0,0,1,1,1
1002.0,26,1,24,60,40,0,3,55,-99.0,0,1,1,1
1002.0,26,0,24,60,40,0,4,40,0.283569,1,0,0,1
1002.0,26,1,24,60,40,0,4,58,0.101092,0,0,0,1
1002.0,26,0,25,40,36,0,0,35,-99.0,0,1,1,1
1002.0,26,1,25,40,36,0,0,35,-99.0,0,1,1,1
1002.0,26,0,25,40,36,0,1,39,-99.0,1,1,1,1
1002.0,26,1,25,40,36,0,1,39,-99.0,1,1,1,1
1002.0,26,0,25,40,36,0,2,50,-99.0,0,1,1,1
1002.0,26,1,25,40,36,0,2,50,-99.0,0,1,1,1
1002.0,26,0,25,40,36,0,3,40,-99.0,1,1,1,1
1002.0,26,1,25,40,36,0,3,40,-99.0,1,1,1,1
1002.0,26,0,25,40,36,0,4,34,0.250395,0,0,0,1
1002.0,26,1,25,40,36,0,4,34,0.70047,0,0,0,1
1002.0,26,0,26,20,40,0,0,23,-99.0,0,1,1,6
1002.0,26,1,26,20,40,0,0,23,-99.0,0,1,1,6
1002.0,26,0,26,20,40,0,1,24,-99.0,0,1,1,6
1002.0,26,1,26,20,40,0,1,24,-99.0,0,1,1,6
1002.0,26,0,26,20,40,0,2,55,-99.0,1,1,1,6
1002.0,26,1,26,20,40,0,2,55,-99.0,1,1,1,6
1002.0,26,0,26,20,40,0,3,38,-99.0,1,1,1,6
1002.0,26,1,26,20,40,0,3,38,-99.0,1,1,1,6
1002.0,26,0,26,20,40,0,4,45,0.350295,1,0,0,6
1002.0,26,1,26,20,40,0,4,45,0.21672,1,0,0,6
1002.0,26,0,26,20,40,0,5,19,1.116975,0,0,0,6
1002.0,26,1,26,20,40,0,5,41,0.200234,1,0,0,6
1002.0,26,0,26,20,40,0,6,28,0.266873,1,0,0,6
1002.0,26,1,26,20,40,0,6,28,0.133491,1,0,0,6
1002.0,26,0,26,20,40,0,7,37,0.100763,1,0,0,6
1002.0,26,1,26,20,40,0,7,37,0.050592,1,0,0,6
1002.0,26,0,26,20,40,0,8,16,0.267039,0,0,0,6
1002.0,26,1,26,20,40,0,8,42,0.283684,1,0,0,6
1002.0,26,0,26,20,40,0,9,37,0.150401,1,0,0,6
1002.0,26,1,26,20,40,0,9,37,0.216742,1,0,0,6
1002.0,26,0,27,48,60,0,0,36,-99.0,0,1,1,6
1002.0,26,1,27,48,60,0,0,36,-99.0,0,1,1,6
1002.0,26,0,27,48,60,0,1,54,-99.0,0,1,1,6
1002.0,26,1,27,48,60,0,1,54,-99.0,0,1,1,6
1002.0,26,0,27,48,60,0,2,54,-99.0,1,1,1,6
1002.0,26,1,27,48,60,0,2,54,-99.0,1,1,1,6
1002.0,26,0,27,48,60,0,3,79,-99.0,1,1,1,6
1002.0,26,1,27,48,60,0,3,79,-99.0,1,1,1,6
1002.0,26,0,27,48,60,0,4,55,0.219591,1,0,0,6
1002.0,26,1,27,48,60,0,4,55,0.167098,1,0,0,6
1002.0,26,0,27,48,60,0,5,45,0.833535,0,0,0,6
1002.0,26,1,27,48,60,0,5,52,0.066986,1,0,0,6
1002.0,26,0,27,48,60,0,6,65,0.250412,1,0,0,6
1002.0,26,1,27,48,60,0,6,65,0.13374,1,0,0,6
1002.0,26,0,27,48,60,0,7,64,0.267281,1,0,0,6
1002.0,26,1,27,48,60,0,7,64,0.499975,1,0,0,6
1002.0,26,0,27,48,60,0,8,64,0.333706,1,0,0,6
1002.0,26,1,27,48,60,0,8,64,0.100391,1,0,0,6
1002.0,26,0,27,48,60,0,9,57,0.183576,1,0,0,6
1002.0,26,1,27,48,60,0,9,57,0.266943,1,0,0,6
1002.0,26,0,28,56,60,1,0,77,-99.0,1,1,1,1
1002.0,26,1,28,56,60,1,0,77,-99.0,1,1,1,1
1002.0,26,0,28,56,60,1,1,41,-99.0,0,1,1,1
1002.0,26,1,28,56,60,1,1,41,-99.0,0,1,1,1
1002.0,26,0,28,56,60,1,2,58,-99.0,1,1,1,1
1002.0,26,1,28,56,60,1,2,58,-99.0,1,1,1,1
1002.0,26,0,28,56,60,1,3,56,-99.0,1,1,1,1
1002.0,26,1,28,56,60,1,3,56,-99.0,1,1,1,1
1002.0,26,0,28,56,60,1,4,60,0.217044,1,0,0,1
1002.0,26,1,28,56,60,1,4,60,0.767048,1,0,0,1
1002.0,26,0,29,40,60,-1,0,73,-99.0,1,1,1,1
1002.0,26,1,29,40,60,-1,0,73,-99.0,1,1,1,1
1002.0,26,0,29,40,60,-1,1,54,-99.0,0,1,1,1
1002.0,26,1,29,40,60,-1,1,54,-99.0,0,1,1,1
1002.0,26,0,29,40,60,-1,2,29,-99.0,0,1,1,1
1002.0,26,1,29,40,60,-1,2,29,-99.0,0,1,1,1
1002.0,26,0,29,40,60,-1,3,41,-99.0,0,1,1,1
1002.0,26,1,29,40,60,-1,3,41,-99.0,0,1,1,1
1002.0,26,0,29,40,60,-1,4,75,0.383074,1,0,0,1
1002.0,26,1,29,40,60,-1,4,75,0.401173,1,0,0,1
1002.0,26,0,30,40,36,0,0,34,-99.0,1,1,1,6
1002.0,26,1,30,40,36,0,0,34,-99.0,1,1,1,6
1002.0,26,0,30,40,36,0,1,44,-99.0,0,1,1,6
1002.0,26,1,30,40,36,0,1,44,-99.0,0,1,1,6
1002.0,26,0,30,40,36,0,2,34,-99.0,0,1,1,6
1002.0,26,1,30,40,36,0,2,34,-99.0,0,1,1,6
1002.0,26,0,30,40,36,0,3,32,-99.0,1,1,1,6
1002.0,26,1,30,40,36,0,3,32,-99.0,1,1,1,6
1002.0,26,0,30,40,36,0,4,37,1.634205,1,0,0,6
1002.0,26,1,30,40,36,0,4,41,0.050439,0,0,0,6
1002.0,26,0,30,40,36,0,5,28,0.167228,0,0,0,6
1002.0,26,1,30,40,36,0,5,28,0.100635,0,0,0,6
1002.0,26,0,30,40,36,0,6,50,0.017138,1,0,0,6
1002.0,26,1,30,40,36,0,6,42,0.017279,0,0,0,6
1002.0,26,0,30,40,36,0,7,33,0.283716,1,0,0,6
1002.0,26,1,30,40,36,0,7,42,0.400446,0,0,0,6
1002.0,26,0,30,40,36,0,8,50,0.28447,0,0,0,6
1002.0,26,1,30,40,36,0,8,50,0.133501,0,0,0,6
1002.0,26,0,30,40,36,0,9,40,0.467414,0,0,0,6
1002.0,26,1,30,40,36,0,9,40,0.367383,0,0,0,6
1002.0,26,0,31,52,60,1,0,57,-99.0,0,1,1,1
1002.0,26,1,31,52,60,1,0,57,-99.0,0,1,1,1
1002.0,26,0,31,52,60,1,1,48,-99.0,1,1,1,1
1002.0,26,1,31,52,60,1,1,48,-99.0,1,1,1,1
1002.0,26,0,31,52,60,1,2,60,-99.0,1,1,1,1
1002.0,26,1,31,52,60,1,2,60,-99.0,1,1,1,1
1002.0,26,0,31,52,60,1,3,64,-99.0,1,1,1,1
1002.0,26,1,31,52,60,1,3,64,-99.0,1,1,1,1
1002.0,26,0,31,52,60,1,4,68,0.618515,1,0,0,1
1002.0,26,1,31,52,60,1,4,44,0.450523,0,0,0,1
1002.0,26,0,32,32,40,0,0,38,-99.0,0,1,1,1
1002.0,26,1,32,32,40,0,0,38,-99.0,0,1,1,1
1002.0,26,0,32,32,40,0,1,39,-99.0,0,1,1,1
1002.0,26,1,32,32,40,0,1,39,-99.0,0,1,1,1
1002.0,26,0,32,32,40,0,2,36,-99.0,1,1,1,1
1002.0,26,1,32,32,40,0,2,36,-99.0,1,1,1,1
1002.0,26,0,32,32,40,0,3,32,-99.0,1,1,1,1
1002.0,26,1,32,32,40,0,3,32,-99.0,1,1,1,1
1002.0,26,0,32,32,40,0,4,30,0.417087,0,0,0,1
1002.0,26,1,32,32,40,0,4,30,0.517061,0,0,0,1
1002.0,26,0,33,40,60,-1,0,35,-99.0,0,1,1,6
1002.0,26,1,33,40,60,-1,0,35,-99.0,0,1,1,6
1002.0,26,0,33,40,60,-1,1,41,-99.0,0,1,1,6
1002.0,26,1,33,40,60,-1,1,41,-99.0,0,1,1,6
1002.0,26,0,33,40,60,-1,2,65,-99.0,1,1,1,6
1002.0,26,1,33,40,60,-1,2,65,-99.0,1,1,1,6
1002.0,26,0,33,40,60,-1,3,32,-99.0,0,1,1,6
1002.0,26,1,33,40,60,-1,3,32,-99.0,0,1,1,6
1002.0,26,0,33,40,60,-1,4,75,0.351414,1,0,0,6
1002.0,26,1,33,40,60,-1,4,75,0.450037,1,0,0,6
1002.0,26,0,33,40,60,-1,5,60,0.2337,1,0,0,6
1002.0,26,1,33,40,60,-1,5,60,0.133546,1,0,0,6
1002.0,26,0,33,40,60,-1,6,51,0.234432,1,0,0,6
1002.0,26,1,33,40,60,-1,6,51,0.1671,1,0,0,6
1002.0,26,0,33,40,60,-1,7,40,0.017137,1,0,0,6
1002.0,26,1,33,40,60,-1,7,40,0.117347,1,0,0,6
1002.0,26,0,33,40,60,-1,8,66,0.483527,1,0,0,6
1002.0,26,1,33,40,60,-1,8,66,0.049792,1,0,0,6
1002.0,26,0,33,40,60,-1,9,60,0.367081,1,0,0,6
1002.0,26,1,33,40,60,-1,9,60,0.334218,1,0,0,6
1002.0,26,0,34,60,48,0,0,74,-99.0,0,1,1,6
1002.0,26,1,34,60,48,0,0,74,-99.0,0,1,1,6
1002.0,26,0,34,60,48,0,1,43,-99.0,1,1,1,6
1002.0,26,1,34,60,48,0,1,43,-99.0,1,1,1,6
1002.0,26,0,34,60,48,0,2,55,-99.0,1,1,1,6
1002.0,26,1,34,60,48,0,2,55,-99.0,1,1,1,6
1002.0,26,0,34,60,48,0,3,59,-99.0,0,1,1,6
1002.0,26,1,34,60,48,0,3,59,-99.0,0,1,1,6
1002.0,26,0,34,60,48,0,4,55,0.033771,0,0,0,6
1002.0,26,1,34,60,48,0,4,55,0.200082,0,0,0,6
1002.0,26,0,34,60,48,0,5,46,1.100683,1,0,0,6
1002.0,26,1,34,60,48,0,5,69,0.017059,0,0,0,6
1002.0,26,0,34,60,48,0,6,55,0.184654,0,0,0,6
1002.0,26,1,34,60,48,0,6,55,0.017199,0,0,0,6
1002.0,26,0,34,60,48,0,7,63,0.067118,0,0,0,6
1002.0,26,1,34,60,48,0,7,63,0.067873,0,0,0,6
1002.0,26,0,34,60,48,0,8,66,0.350376,0,0,0,6
1002.0,26,1,34,60,48,0,8,66,0.400291,0,0,0,6
1002.0,26,0,34,60,48,0,9,48,0.200533,0,0,0,6
1002.0,26,1,34,60,48,0,9,48,0.36705,0,0,0,6
1002.0,26,0,35,28,40,0,0,41,-99.0,1,1,1,6
1002.0,26,1,35,28,40,0,0,41,-99.0,1,1,1,6
1002.0,26,0,35,28,40,0,1,21,-99.0,0,1,1,6
1002.0,26,1,35,28,40,0,1,21,-99.0,0,1,1,6
1002.0,26,0,35,28,40,0,2,20,-99.0,0,1,1,6
1002.0,26,1,35,28,40,0,2,20,-99.0,0,1,1,6
1002.0,26,0,35,28,40,0,3,40,-99.0,1,1,1,6
1002.0,26,1,35,28,40,0,3,40,-99.0,1,1,1,6
1002.0,26,0,35,28,40,0,4,36,0.150175,1,0,0,6
1002.0,26,1,35,28,40,0,4,36,0.03383,1,0,0,6
1002.0,26,0,35,28,40,0,5,20,1.285003,0,0,0,6
1002.0,26,1,35,28,40,0,5,41,0.067181,1,0,0,6
1002.0,26,0,35,28,40,0,6,39,0.30029,1,0,0,6
1002.0,26,1,35,28,40,0,6,39,0.084095,1,0,0,6
1002.0,26,0,35,28,40,0,7,43,0.283618,1,0,0,6
1002.0,26,1,35,28,40,0,7,43,0.067233,1,0,0,6
1002.0,26,0,35,28,40,0,8,20,0.1839,0,0,0,6
1002.0,26,1,35,28,40,0,8,38,0.100241,1,0,0,6
1002.0,26,0,35,28,40,0,9,35,0.033696,1,0,0,6
1002.0,26,1,35,28,40,0,9,35,0.416749,1,0,0,6
1002.0,26,0,36,56,60,0,0,59,-99.0,1,1,1,1
1002.0,26,1,36,56,60,0,0,59,-99.0,1,1,1,1
1002.0,26,0,36,56,60,0,1,57,-99.0,0,1,1,1
1002.0,26,1,36,56,60,0,1,57,-99.0,0,1,1,1
1002.0,26,0,36,56,60,0,2,55,-99.0,0,1,1,1
1002.0,26,1,36,56,60,0,2,55,-99.0,0,1,1,1
1002.0,26,0,36,56,60,0,3,56,-99.0,1,1,1,1
1002.0,26,1,36,56,60,0,3,56,-99.0,1,1,1,1
1002.0,26,0,36,56,60,0,4,74,0.400467,1,0,0,1
1002.0,26,1,36,56,60,0,4,74,0.25041,1,0,0,1
1002.0,26,0,37,60,56,0,0,43,-99.0,1,1,1,6
1002.0,26,1,37,60,56,0,0,43,-99.0,1,1,1,6
1002.0,26,0,37,60,56,0,1,44,-99.0,0,1,1,6
1002.0,26,1,37,60,56,0,1,44,-99.0,0,1,1,6
1002.0,26,0,37,60,56,0,2,52,-99.0,1,1,1,6
1002.0,26,1,37,60,56,0,2,52,-99.0,1,1,1,6
1002.0,26,0,37,60,56,0,3,59,-99.0,0,1,1,6
1002.0,26,1,37,60,56,0,3,59,-99.0,0,1,1,6
1002.0,26,0,37,60,56,0,4,55,0.283422,1,0,0,6
1002.0,26,1,37,60,56,0,4,64,0.200748,0,0,0,6
1002.0,26,0,37,60,56,0,5,46,0.700419,1,0,0,6
1002.0,26,1,37,60,56,0,5,64,0.033749,0,0,0,6
1002.0,26,0,37,60,56,0,6,48,0.051035,0,0,0,6
1002.0,26,1,37,60,56,0,6,48,0.350325,0,0,0,6
1002.0,26,0,37,60,56,0,7,55,0.250142,1,0,0,6
1002.0,26,1,37,60,56,0,7,62,0.083732,0,0,0,6
1002.0,26,0,37,60,56,0,8,64,0.150778,0,0,0,6
1002.0,26,1,37,60,56,0,8,64,0.017522,0,0,0,6
1002.0,26,0,37,60,56,0,9,61,0.167165,1,0,0,6
1002.0,26,1,37,60,56,0,9,60,0.250365,0,0,0,6
1002.0,26,0,38,20,40,0,0,48,-99.0,1,1,1,6
1002.0,26,1,38,20,40,0,0,48,-99.0,1,1,1,6
1002.0,26,0,38,20,40,0,1,13,-99.0,0,1,1,6
1002.0,26,1,38,20,40,0,1,13,-99.0,0,1,1,6
1002.0,26,0,38,20,40,0,2,16,-99.0,0,1,1,6
1002.0,26,1,38,20,40,0,2,16,-99.0,0,1,1,6
1002.0,26,0,38,20,40,0,3,44,-99.0,1,1,1,6
1002.0,26,1,38,20,40,0,3,44,-99.0,1,1,1,6
1002.0,26,0,38,20,40,0,4,36,0.283413,1,0,0,6
1002.0,26,1,38,20,40,0,4,36,0.43389,1,0,0,6
1002.0,26,0,38,20,40,0,5,24,0.550519,0,0,0,6
1002.0,26,1,38,20,40,0,5,49,0.183671,1,0,0,6
1002.0,26,0,38,20,40,0,6,49,0.251146,1,0,0,6
1002.0,26,1,38,20,40,0,6,49,0.117004,1,0,0,6
1002.0,26,0,38,20,40,0,7,36,0.166938,1,0,0,6
1002.0,26,1,38,20,40,0,7,36,0.067076,1,0,0,6
1002.0,26,0,38,20,40,0,8,29,0.050526,1,0,0,6
1002.0,26,1,38,20,40,0,8,29,0.033483,1,0,0,6
1002.0,26,0,38,20,40,0,9,43,0.434364,1,0,0,6
1002.0,26,1,38,20,40,0,9,43,0.283644,1,0,0,6
1002.0,26,0,39,40,20,0,0,42,-99.0,0,1,1,6
1002.0,26,1,39,40,20,0,0,42,-99.0,0,1,1,6
1002.0,26,0,39,40,20,0,1,30,-99.0,0,1,1,6
1002.0,26,1,39,40,20,0,1,30,-99.0,0,1,1,6
1002.0,26,0,39,40,20,0,2,29,-99.0,1,1,1,6
1002.0,26,1,39,40,20,0,2,29,-99.0,1,1,1,6
1002.0,26,0,39,40,20,0,3,3,-99.0,1,1,1,6
1002.0,26,1,39,40,20,0,3,3,-99.0,1,1,1,6
1002.0,26,0,39,40,20,0,4,36,0.617457,0,0,0,6
1002.0,26,1,39,40,20,0,4,36,0.516986,0,0,0,6
1002.0,26,0,39,40,20,0,5,13,0.467121,1,0,0,6
1002.0,26,1,39,40,20,0,5,26,0.167247,0,0,0,6
1002.0,26,0,39,40,20,0,6,48,0.25017,0,0,0,6
1002.0,26,1,39,40,20,0,6,48,0.117001,0,0,0,6
1002.0,26,0,39,40,20,0,7,43,0.267178,0,0,0,6
1002.0,26,1,39,40,20,0,7,43,0.149399,0,0,0,6
1002.0,26,0,39,40,20,0,8,39,0.200561,0,0,0,6
1002.0,26,1,39,40,20,0,8,39,0.133814,0,0,0,6
1002.0,26,0,39,40,20,0,9,41,0.10054,0,0,0,6
1002.0,26,1,39,40,20,0,9,41,0.267094,0,0,0,6
1002.0,26,0,40,32,40,1,0,34,-99.0,1,1,1,6
1002.0,26,1,40,32,40,1,0,34,-99.0,1,1,1,6
1002.0,26,0,40,32,40,1,1,32,-99.0,1,1,1,6
1002.0,26,1,40,32,40,1,1,32,-99.0,1,1,1,6
1002.0,26,0,40,32,40,1,2,37,-99.0,0,1,1,6
1002.0,26,1,40,32,40,1,2,37,-99.0,0,1,1,6
1002.0,26,0,40,32,40,1,3,47,-99.0,1,1,1,6
1002.0,26,1,40,32,40,1,3,47,-99.0,1,1,1,6
1002.0,26,0,40,32,40,1,4,34,0.51712,0,0,0,6
1002.0,26,1,40,32,40,1,4,34,0.550438,0,0,0,6
1002.0,26,0,40,32,40,1,5,41,0.183073,1,0,0,6
1002.0,26,1,40,32,40,1,5,25,0.883789,0,0,0,6
1002.0,26,0,40,32,40,1,6,50,0.183302,1,0,0,6
1002.0,26,1,40,32,40,1,6,50,0.066761,1,0,0,6
1002.0,26,0,40,32,40,1,7,39,0.150107,1,0,0,6
1002.0,26,1,40,32,40,1,7,39,0.05012,1,0,0,6
1002.0,26,0,40,32,40,1,8,40,0.033722,1,0,0,6
1002.0,26,1,40,32,40,1,8,40,0.11687,1,0,0,6
1002.0,26,0,40,32,40,1,9,40,0.882884,1,0,0,6
1002.0,26,1,40,32,40,1,9,40,0.017207,1,0,0,6
1002.0,26,0,41,40,32,0,0,34,-99.0,1,1,1,6
1002.0,26,1,41,40,32,0,0,34,-99.0,1,1,1,6
1002.0,26,0,41,40,32,0,1,38,-99.0,0,1,1,6
1002.0,26,1,41,40,32,0,1,38,-99.0,0,1,1,6
1002.0,26,0,41,40,32,0,2,28,-99.0,1,1,1,6
1002.0,26,1,41,40,32,0,2,28,-99.0,1,1,1,6
1002.0,26,0,41,40,32,0,3,48,-99.0,0,1,1,6
1002.0,26,1,41,40,32,0,3,48,-99.0,0,1,1,6
1002.0,26,0,41,40,32,0,4,26,0.233785,1,0,0,6
1002.0,26,1,41,40,32,0,4,44,0.133952,0,0,0,6
1002.0,26,0,41,40,32,0,5,34,0.150351,1,0,0,6
1002.0,26,1,41,40,32,0,5,32,0.183557,0,0,0,6
1002.0,26,0,41,40,32,0,6,25,0.183879,1,0,0,6
1002.0,26,1,41,40,32,0,6,48,0.451398,0,0,0,6
1002.0,26,0,41,40,32,0,7,42,0.200254,0,0,0,6
1002.0,26,1,41,40,32,0,7,42,0.117178,0,0,0,6
1002.0,26,0,41,40,32,0,8,39,0.150488,0,0,0,6
1002.0,26,1,41,40,32,0,8,39,0.083991,0,0,0,6
1002.0,26,0,41,40,32,0,9,42,0.034505,0,0,0,6
1002.0,26,1,41,40,32,0,9,42,0.383711,0,0,0,6
1002.0,26,0,42,40,36,0,0,50,-99.0,1,1,1,1
1002.0,26,1,42,40,36,0,0,50,-99.0,1,1,1,1
1002.0,26,0,42,40,36,0,1,50,-99.0,0,1,1,1
1002.0,26,1,42,40,36,0,1,50,-99.0,0,1,1,1
1002.0,26,0,42,40,36,0,2,34,-99.0,0,1,1,1
1002.0,26,1,42,40,36,0,2,34,-99.0,0,1,1,1
1002.0,26,0,42,40,36,0,3,36,-99.0,1,1,1,1
1002.0,26,1,42,40,36,0,3,36,-99.0,1,1,1,1
1002.0,26,0,42,40,36,0,4,47,0.267043,1,0,0,1
1002.0,26,1,42,40,36,0,4,47,0.133546,1,0,0,1
1002.0,26,0,43,40,28,0,0,33,-99.0,1,1,1,1
1002.0,26,1,43,40,28,0,0,33,-99.0,1,1,1,1
1002.0,26,0,43,40,28,0,1,53,-99.0,0,1,1,1
1002.0,26,1,43,40,28,0,1,53,-99.0,0,1,1,1
1002.0,26,0,43,40,28,0,2,32,-99.0,0,1,1,1
1002.0,26,1,43,40,28,0,2,32,-99.0,0,1,1,1
1002.0,26,0,43,40,28,0,3,32,-99.0,1,1,1,1
1002.0,26,1,43,40,28,0,3,32,-99.0,1,1,1,1
1002.0,26,0,43,40,28,0,4,27,0.083828,1,0,0,1
1002.0,26,1,43,40,28,0,4,41,0.200626,0,0,0,1
1002.0,26,0,44,60,56,1,0,57,-99.0,1,1,1,6
1002.0,26,1,44,60,56,1,0,57,-99.0,1,1,1,6
1002.0,26,0,44,60,56,1,1,60,-99.0,1,1,1,6
1002.0,26,1,44,60,56,1,1,60,-99.0,1,1,1,6
1002.0,26,0,44,60,56,1,2,47,-99.0,0,1,1,6
1002.0,26,1,44,60,56,1,2,47,-99.0,0,1,1,6
1002.0,26,0,44,60,56,1,3,50,-99.0,1,1,1,6
1002.0,26,1,44,60,56,1,3,50,-99.0,1,1,1,6
1002.0,26,0,44,60,56,1,4,50,0.200787,1,0,0,6
1002.0,26,1,44,60,56,1,4,64,0.516787,0,0,0,6
1002.0,26,0,44,60,56,1,5,86,1.066861,0,0,0,6
1002.0,26,1,44,60,56,1,5,86,0.817073,0,0,0,6
1002.0,26,0,44,60,56,1,6,56,0.183612,0,0,0,6
1002.0,26,1,44,60,56,1,6,56,0.134048,0,0,0,6
1002.0,26,0,44,60,56,1,7,69,0.317485,0,0,0,6
1002.0,26,1,44,60,56,1,7,69,0.017045,0,0,0,6
1002.0,26,0,44,60,56,1,8,60,0.183357,0,0,0,6
1002.0,26,1,44,60,56,1,8,60,0.267042,0,0,0,6
1002.0,26,0,44,60,56,1,9,50,0.167161,0,0,0,6
1002.0,26,1,44,60,56,1,9,50,0.300145,0,0,0,6
1002.0,26,0,45,40,28,0,0,30,-99.0,1,1,1,6
1002.0,26,1,45,40,28,0,0,30,-99.0,1,1,1,6
1002.0,26,0,45,40,28,0,1,30,-99.0,1,1,1,6
1002.0,26,1,45,40,28,0,1,30,-99.0,1,1,1,6
1002.0,26,0,45,40,28,0,2,39,-99.0,0,1,1,6
1002.0,26,1,45,40,28,0,2,39,-99.0,0,1,1,6
1002.0,26,0,45,40,28,0,3,33,-99.0,0,1,1,6
1002.0,26,1,45,40,28,0,3,33,-99.0,0,1,1,6
1002.0,26,0,45,40,28,0,4,10,0.383736,1,0,0,6
1002.0,26,1,45,40,28,0,4,32,0.183481,0,0,0,6
1002.0,26,0,45,40,28,0,5,27,0.300395,0,0,0,6
1002.0,26,1,45,40,28,0,5,27,0.150628,0,0,0,6
1002.0,26,0,45,40,28,0,6,37,0.234093,1,0,0,6
1002.0,26,1,45,40,28,0,6,39,0.050364,0,0,0,6
1002.0,26,0,45,40,28,0,7,45,0.084476,0,0,0,6
1002.0,26,1,45,40,28,0,7,45,0.333816,0,0,0,6
1002.0,26,0,45,40,28,0,8,48,0.050473,0,0,0,6
1002.0,26,1,45,40,28,0,8,48,0.300049,0,0,0,6
1002.0,26,0,45,40,28,0,9,46,0.383709,0,0,0,6
1002.0,26,1,45,40,28,0,9,46,0.150401,0,0,0,6
1002.0,26,0,46,40,20,0,0,41,-99.0,0,1,1,6
1002.0,26,1,46,40,20,0,0,41,-99.0,0,1,1,6
1002.0,26,0,46,40,20,0,1,21,-99.0,1,1,1,6
1002.0,26,1,46,40,20,0,1,21,-99.0,1,1,1,6
1002.0,26,0,46,40,20,0,2,39,-99.0,0,1,1,6
1002.0,26,1,46,40,20,0,2,39,-99.0,0,1,1,6
1002.0,26,0,46,40,20,0,3,18,-99.0,1,1,1,6
1002.0,26,1,46,40,20,0,3,18,-99.0,1,1,1,6
1002.0,26,0,46,40,20,0,4,38,0.200386,0,0,0,6
1002.0,26,1,46,40,20,0,4,38,0.350064,0,0,0,6
1002.0,26,0,46,40,20,0,5,37,0.300479,0,0,0,6
1002.0,26,1,46,40,20,0,5,37,0.100302,0,0,0,6
1002.0,26,0,46,40,20,0,6,17,0.183303,1,0,0,6
1002.0,26,1,46,40,20,0,6,41,0.050459,0,0,0,6
1002.0,26,0,46,40,20,0,7,34,0.234358,0,0,0,6
1002.0,26,1,46,40,20,0,7,34,0.150772,0,0,0,6
1002.0,26,0,46,40,20,0,8,33,0.450409,0,0,0,6
1002.0,26,1,46,40,20,0,8,33,0.133389,0,0,0,6
1002.0,26,0,46,40,20,0,9,50,0.633735,0,0,0,6
1002.0,26,1,46,40,20,0,9,50,0.050014,0,0,0,6
1002.0,26,0,47,40,20,0,0,39,-99.0,0,1,1,6
1002.0,26,1,47,40,20,0,0,39,-99.0,0,1,1,6
1002.0,26,0,47,40,20,0,1,15,-99.0,1,1,1,6
1002.0,26,1,47,40,20,0,1,15,-99.0,1,1,1,6
1002.0,26,0,47,40,20,0,2,35,-99.0,0,1,1,6
1002.0,26,1,47,40,20,0,2,35,-99.0,0,1,1,6
1002.0,26,0,47,40,20,0,3,25,-99.0,1,1,1,6
1002.0,26,1,47,40,20,0,3,25,-99.0,1,1,1,6
1002.0,26,0,47,40,20,0,4,42,0.233726,0,0,0,6
1002.0,26,1,47,40,20,0,4,42,0.400143,0,0,0,6
1002.0,26,0,47,40,20,0,5,36,0.250419,0,0,0,6
1002.0,26,1,47,40,20,0,5,36,0.08341,0,0,0,6
1002.0,26,0,47,40,20,0,6,50,0.467187,0,0,0,6
1002.0,26,1,47,40,20,0,6,50,0.06701,0,0,0,6
1002.0,26,0,47,40,20,0,7,47,0.233388,0,0,0,6
1002.0,26,1,47,40,20,0,7,47,0.46824,0,0,0,6
1002.0,26,0,47,40,20,0,8,43,0.350177,0,0,0,6
1002.0,26,1,47,40,20,0,8,43,0.116641,0,0,0,6
1002.0,26,0,47,40,20,0,9,29,0.367168,0,0,0,6
1002.0,26,1,47,40,20,0,9,29,0.3503,0,0,0,6
1002.0,26,0,48,48,60,0,0,57,-99.0,1,1,1,6
1002.0,26,1,48,48,60,0,0,57,-99.0,1,1,1,6
1002.0,26,0,48,48,60,0,1,34,-99.0,0,1,1,6
1002.0,26,1,48,48,60,0,1,34,-99.0,0,1,1,6
1002.0,26,0,48,48,60,0,2,65,-99.0,1,1,1,6
1002.0,26,1,48,48,60,0,2,65,-99.0,1,1,1,6
1002.0,26,0,48,48,60,0,3,55,-99.0,0,1,1,6
1002.0,26,1,48,48,60,0,3,55,-99.0,0,1,1,6
1002.0,26,0,48,48,60,0,4,51,0.283772,1,0,0,6
1002.0,26,1,48,48,60,0,4,51,0.216773,1,0,0,6
1002.0,26,0,48,48,60,0,5,31,0.183862,0,0,0,6
1002.0,26,1,48,48,60,0,5,50,0.066904,1,0,0,6
1002.0,26,0,48,48,60,0,6,59,0.265656,1,0,0,6
1002.0,26,1,48,48,60,0,6,59,0.066851,1,0,0,6
1002.0,26,0,48,48,60,0,7,60,0.200447,1,0,0,6
1002.0,26,1,48,48,60,0,7,60,0.117332,1,0,0,6
1002.0,26,0,48,48,60,0,8,66,0.100431,1,0,0,6
1002.0,26,1,48,48,60,0,8,66,0.050089,1,0,0,6
1002.0,26,0,48,48,60,0,9,56,0.350451,1,0,0,6
1002.0,26,1,48,48,60,0,9,56,0.300475,1,0,0,6
1002.0,26,0,49,20,40,1,0,35,-99.0,1,1,1,1
1002.0,26,1,49,20,40,1,0,35,-99.0,1,1,1,1
1002.0,26,0,49,20,40,1,1,43,-99.0,1,1,1,1
1002.0,26,1,49,20,40,1,1,43,-99.0,1,1,1,1
1002.0,26,0,49,20,40,1,2,10,-99.0,0,1,1,1
1002.0,26,1,49,20,40,1,2,10,-99.0,0,1,1,1
1002.0,26,0,49,20,40,1,3,50,-99.0,1,1,1,1
1002.0,26,1,49,20,40,1,3,50,-99.0,1,1,1,1
1002.0,26,0,49,20,40,1,4,22,0.300329,0,0,0,1
1002.0,26,1,49,20,40,1,4,40,0.300244,1,0,0,1
1002.0,26,0,50,40,28,0,0,31,-99.0,1,1,1,6
1002.0,26,1,50,40,28,0,0,31,-99.0,1,1,1,6
1002.0,26,0,50,40,28,0,1,38,-99.0,0,1,1,6
1002.0,26,1,50,40,28,0,1,38,-99.0,0,1,1,6
1002.0,26,0,50,40,28,0,2,31,-99.0,0,1,1,6
1002.0,26,1,50,40,28,0,2,31,-99.0,0,1,1,6
1002.0,26,0,50,40,28,0,3,27,-99.0,1,1,1,6
1002.0,26,1,50,40,28,0,3,27,-99.0,1,1,1,6
1002.0,26,0,50,40,28,0,4,20,0.267135,1,0,0,6
1002.0,26,1,50,40,28,0,4,43,0.283731,0,0,0,6
1002.0,26,0,50,40,28,0,5,38,0.117097,0,0,0,6
1002.0,26,1,50,40,28,0,5,38,0.33375,0,0,0,6
1002.0,26,0,50,40,28,0,6,47,0.1338,0,0,0,6
1002.0,26,1,50,40,28,0,6,47,0.033623,0,0,0,6
1002.0,26,0,50,40,28,0,7,41,0.050969,0,0,0,6
1002.0,26,1,50,40,28,0,7,41,0.167225,0,0,0,6
1002.0,26,0,50,40,28,0,8,37,0.10037,0,0,0,6
1002.0,26,1,50,40,28,0,8,37,0.050167,0,0,0,6
1002.0,26,0,50,40,28,0,9,47,0.033538,0,0,0,6
1002.0,26,1,50,40,28,0,9,47,0.100548,0,0,0,6
1002.0,26,0,51,56,60,1,0,69,-99.0,1,1,1,6
1002.0,26,1,51,56,60,1,0,69,-99.0,1,1,1,6
1002.0,26,0,51,56,60,1,1,58,-99.0,1,1,1,6
1002.0,26,1,51,56,60,1,1,58,-99.0,1,1,1,6
1002.0,26,0,51,56,60,1,2,59,-99.0,0,1,1,6
1002.0,26,1,51,56,60,1,2,59,-99.0,0,1,1,6
1002.0,26,0,51,56,60,1,3,64,-99.0,1,1,1,6
1002.0,26,1,51,56,60,1,3,64,-99.0,1,1,1,6
1002.0,26,0,51,56,60,1,4,44,0.383884,1,0,0,6
1002.0,26,1,51,56,60,1,4,62,0.46683,0,0,0,6
1002.0,26,0,51,56,60,1,5,65,0.233765,0,0,0,6
1002.0,26,1,51,56,60,1,5,60,0.084044,1,0,0,6
1002.0,26,0,51,56,60,1,6,62,0.234117,0,0,0,6
1002.0,26,1,51,56,60,1,6,72,0.518654,1,0,0,6
1002.0,26,0,51,56,60,1,7,55,0.233121,1,0,0,6
1002.0,26,1,51,56,60,1,7,55,0.067112,1,0,0,6
1002.0,26,0,51,56,60,1,8,53,0.217116,0,0,0,6
1002.0,26,1,51,56,60,1,8,52,0.167098,1,0,0,6
1002.0,26,0,51,56,60,1,9,52,0.233427,0,0,0,6
1002.0,26,1,51,56,60,1,9,69,0.033745,1,0,0,6
1002.0,26,0,52,40,36,-1,0,49,-99.0,0,1,1,6
1002.0,26,1,52,40,36,-1,0,49,-99.0,0,1,1,6
1002.0,26,0,52,40,36,-1,1,43,-99.0,1,1,1,6
1002.0,26,1,52,40,36,-1,1,43,-99.0,1,1,1,6
1002.0,26,0,52,40,36,-1,2,60,-99.0,0,1,1,6
1002.0,26,1,52,40,36,-1,2,60,-99.0,0,1,1,6
1002.0,26,0,52,40,36,-1,3,60,-99.0,0,1,1,6
1002.0,26,1,52,40,36,-1,3,60,-99.0,0,1,1,6
1002.0,26,0,52,40,36,-1,4,53,0.200328,0,0,0,6
1002.0,26,1,52,40,36,-1,4,45,0.317242,1,0,0,6
1002.0,26,0,52,40,36,-1,5,59,0.03371,1,0,0,6
1002.0,26,1,52,40,36,-1,5,60,0.150187,0,0,0,6
1002.0,26,0,52,40,36,-1,6,71,0.334114,0,0,0,6
1002.0,26,1,52,40,36,-1,6,71,0.267226,0,0,0,6
1002.0,26,0,52,40,36,-1,7,60,0.216515,0,0,0,6
1002.0,26,1,52,40,36,-1,7,60,0.283733,0,0,0,6
1002.0,26,0,52,40,36,-1,8,58,0.300403,0,0,0,6
1002.0,26,1,52,40,36,-1,8,58,0.050345,0,0,0,6
1002.0,26,0,52,40,36,-1,9,76,0.167159,0,0,0,6
1002.0,26,1,52,40,36,-1,9,76,0.117246,0,0,0,6
1002.0,26,0,53,40,60,-1,0,36,-99.0,0,1,1,1
1002.0,26,1,53,40,60,-1,0,36,-99.0,0,1,1,1
1002.0,26,0,53,40,60,-1,1,42,-99.0,0,1,1,1
1002.0,26,1,53,40,60,-1,1,42,-99.0,0,1,1,1
1002.0,26,0,53,40,60,-1,2,36,-99.0,0,1,1,1
1002.0,26,1,53,40,60,-1,2,36,-99.0,0,1,1,1
1002.0,26,0,53,40,60,-1,3,59,-99.0,1,1,1,1
1002.0,26,1,53,40,60,-1,3,59,-99.0,1,1,1,1
1002.0,26,0,53,40,60,-1,4,75,0.166981,1,0,0,1
1002.0,26,1,53,40,60,-1,4,75,0.950996,1,0,0,1
1002.0,26,0,54,56,60,-1,0,64,-99.0,0,1,1,6
1002.0,26,1,54,56,60,-1,0,64,-99.0,0,1,1,6
1002.0,26,0,54,56,60,-1,1,57,-99.0,0,1,1,6
1002.0,26,1,54,56,60,-1,1,57,-99.0,0,1,1,6
1002.0,26,0,54,56,60,-1,2,66,-99.0,1,1,1,6
1002.0,26,1,54,56,60,-1,2,66,-99.0,1,1,1,6
1002.0,26,0,54,56,60,-1,3,67,-99.0,0,1,1,6
1002.0,26,1,54,56,60,-1,3,67,-99.0,0,1,1,6
1002.0,26,0,54,56,60,-1,4,60,0.31715,1,0,0,6
1002.0,26,1,54,56,60,-1,4,60,0.050405,1,0,0,6
1002.0,26,0,54,56,60,-1,5,57,0.983651,0,0,0,6
1002.0,26,1,54,56,60,-1,5,57,0.167212,0,0,0,6
1002.0,26,0,54,56,60,-1,6,73,0.234281,1,0,0,6
1002.0,26,1,54,56,60,-1,6,46,0.050384,0,0,0,6
1002.0,26,0,54,56,60,-1,7,56,0.200355,1,0,0,6
1002.0,26,1,54,56,60,-1,7,56,0.267121,1,0,0,6
1002.0,26,0,54,56,60,-1,8,60,0.317172,1,0,0,6
1002.0,26,1,54,56,60,-1,8,60,0.050391,1,0,0,6
1002.0,26,0,54,56,60,-1,9,73,0.150468,1,0,0,6
1002.0,26,1,54,56,60,-1,9,73,0.233236,1,0,0,6
1002.0,26,0,55,20,40,-1,0,19,-99.0,0,1,1,1
1002.0,26,1,55,20,40,-1,0,19,-99.0,0,1,1,1
1002.0,26,0,55,20,40,-1,1,25,-99.0,0,1,1,1
1002.0,26,1,55,20,40,-1,1,25,-99.0,0,1,1,1
1002.0,26,0,55,20,40,-1,2,17,-99.0,0,1,1,1
1002.0,26,1,55,20,40,-1,2,17,-99.0,0,1,1,1
1002.0,26,0,55,20,40,-1,3,40,-99.0,1,1,1,1
1002.0,26,1,55,20,40,-1,3,40,-99.0,1,1,1,1
1002.0,26,0,55,20,40,-1,4,44,0.400425,1,0,0,1
1002.0,26,1,55,20,40,-1,4,44,0.232479,1,0,0,1
1002.0,26,0,56,60,52,1,0,52,-99.0,1,1,1,6
1002.0,26,1,56,60,52,1,0,52,-99.0,1,1,1,6
1002.0,26,0,56,60,52,1,1,67,-99.0,0,1,1,6
1002.0,26,1,56,60,52,1,1,67,-99.0,0,1,1,6
1002.0,26,0,56,60,52,1,2,49,-99.0,1,1,1,6
1002.0,26,1,56,60,52,1,2,49,-99.0,1,1,1,6
1002.0,26,0,56,60,52,1,3,51,-99.0,1,1,1,6
1002.0,26,1,56,60,52,1,3,51,-99.0,1,1,1,6
1002.0,26,0,56,60,52,1,4,71,0.03367,0,0,0,6
1002.0,26,1,56,60,52,1,4,71,0.183503,0,0,0,6
1002.0,26,0,56,60,52,1,5,44,0.600335,1,0,0,6
1002.0,26,1,56,60,52,1,5,55,0.350524,0,0,0,6
1002.0,26,0,56,60,52,1,6,70,0.017183,0,0,0,6
1002.0,26,1,56,60,52,1,6,70,0.016941,0,0,0,6
1002.0,26,0,56,60,52,1,7,54,0.232464,0,0,0,6
1002.0,26,1,56,60,52,1,7,54,0.283804,0,0,0,6
1002.0,26,0,56,60,52,1,8,52,0.133807,0,0,0,6
1002.0,26,1,56,60,52,1,8,52,0.250152,0,0,0,6
1002.0,26,0,56,60,52,1,9,54,0.183798,0,0,0,6
1002.0,26,1,56,60,52,1,9,54,0.183724,0,0,0,6
1002.0,26,0,57,32,40,-1,0,39,-99.0,0,1,1,6
1002.0,26,1,57,32,40,-1,0,39,-99.0,0,1,1,6
1002.0,26,0,57,32,40,-1,1,38,-99.0,1,1,1,6
1002.0,26,1,57,32,40,-1,1,38,-99.0,1,1,1,6
1002.0,26,0,57,32,40,-1,2,21,-99.0,0,1,1,6
1002.0,26,1,57,32,40,-1,2,21,-99.0,0,1,1,6
1002.0,26,0,57,32,40,-1,3,26,-99.0,0,1,1,6
1002.0,26,1,57,32,40,-1,3,26,-99.0,0,1,1,6
1002.0,26,0,57,32,40,-1,4,36,0.666932,1,0,0,6
1002.0,26,1,57,32,40,-1,4,36,0.733795,1,0,0,6
1002.0,26,0,57,32,40,-1,5,8,0.350148,0,0,0,6
1002.0,26,1,57,32,40,-1,5,38,0.133832,1,0,0,6
1002.0,26,0,57,32,40,-1,6,40,0.133946,1,0,0,6
1002.0,26,1,57,32,40,-1,6,40,0.050189,1,0,0,6
1002.0,26,0,57,32,40,-1,7,30,0.134332,1,0,0,6
1002.0,26,1,57,32,40,-1,7,30,0.033723,1,0,0,6
1002.0,26,0,57,32,40,-1,8,42,0.200345,1,0,0,6
1002.0,26,1,57,32,40,-1,8,42,0.232883,1,0,0,6
1002.0,26,0,57,32,40,-1,9,38,0.017106,1,0,0,6
1002.0,26,1,57,32,40,-1,9,38,0.250417,1,0,0,6
1002.0,26,0,58,40,20,0,0,39,-99.0,0,1,1,1
1002.0,26,1,58,40,20,0,0,39,-99.0,0,1,1,1
1002.0,26,0,58,40,20,0,1,14,-99.0,1,1,1,1
1002.0,26,1,58,40,20,0,1,14,-99.0,1,1,1,1
1002.0,26,0,58,40,20,0,2,34,-99.0,0,1,1,1
1002.0,26,1,58,40,20,0,2,34,-99.0,0,1,1,1
1002.0,26,0,58,40,20,0,3,14,-99.0,1,1,1,1
1002.0,26,1,58,40,20,0,3,14,-99.0,1,1,1,1
1002.0,26,0,58,40,20,0,4,37,0.483704,0,0,0,1
1002.0,26,1,58,40,20,0,4,37,0.067448,0,0,0,1
1002.0,26,0,59,60,56,-1,0,67,-99.0,1,1,1,1
1002.0,26,1,59,60,56,-1,0,67,-99.0,1,1,1,1
1002.0,26,0,59,60,56,-1,1,52,-99.0,0,1,1,1
1002.0,26,1,59,60,56,-1,1,52,-99.0,0,1,1,1
1002.0,26,0,59,60,56,-1,2,54,-99.0,0,1,1,1
1002.0,26,1,59,60,56,-1,2,54,-99.0,0,1,1,1
1002.0,26,0,59,60,56,-1,3,62,-99.0,0,1,1,1
1002.0,26,1,59,60,56,-1,3,62,-99.0,0,1,1,1
1002.0,26,0,59,60,56,-1,4,58,0.633694,0,0,0,1
1002.0,26,1,59,60,56,-1,4,58,0.598842,0,0,0,1
1002.0,26,0,60,40,32,0,0,31,-99.0,1,1,1,6
1002.0,26,1,60,40,32,0,0,31,-99.0,1,1,1,6
1002.0,26,0,60,40,32,0,1,23,-99.0,1,1,1,6
1002.0,26,1,60,40,32,0,1,23,-99.0,1,1,1,6
1002.0,26,0,60,40,32,0,2,34,-99.0,0,1,1,6
1002.0,26,1,60,40,32,0,2,34,-99.0,0,1,1,6
1002.0,26,0,60,40,32,0,3,47,-99.0,0,1,1,6
1002.0,26,1,60,40,32,0,3,47,-99.0,0,1,1,6
1002.0,26,0,60,40,32,0,4,49,0.632531,0,0,0,6
1002.0,26,1,60,40,32,0,4,49,0.250783,0,0,0,6
1002.0,26,0,60,40,32,0,5,31,0.150321,1,0,0,6
1002.0,26,1,60,40,32,0,5,35,0.400258,0,0,0,6
1002.0,26,0,60,40,32,0,6,48,0.267325,0,0,0,6
1002.0,26,1,60,40,32,0,6,48,0.267087,0,0,0,6
1002.0,26,0,60,40,32,0,7,38,0.250595,1,0,0,6
1002.0,26,1,60,40,32,0,7,29,0.166738,0,0,0,6
1002.0,26,0,60,40,32,0,8,43,0.017702,0,0,0,6
1002.0,26,1,60,40,32,0,8,43,0.016985,0,0,0,6
1002.0,26,0,60,40,32,0,9,46,0.300477,0,0,0,6
1002.0,26,1,60,40,32,0,9,46,0.217032,0,0,0,6
1002.0,26,0,61,28,40,0,0,20,-99.0,0,1,1,1
1002.0,26,1,61,28,40,0,0,20,-99.0,0,1,1,1
1002.0,26,0,61,28,40,0,1,41,-99.0,1,1,1,1
1002.0,26,1,61,28,40,0,1,41,-99.0,1,1,1,1
1002.0,26,0,61,28,40,0,2,45,-99.0,1,1,1,1
1002.0,26,1,61,28,40,0,2,45,-99.0,1,1,1,1
1002.0,26,0,61,28,40,0,3,33,-99.0,0,1,1,1
1002.0,26,1,61,28,40,0,3,33,-99.0,0,1,1,1
1002.0,26,0,61,28,40,0,4,37,1.283441,0,0,0,1
1002.0,26,1,61,28,40,0,4,43,0.266996,1,0,0,1
1002.0,26,0,62,56,60,-1,0,65,-99.0,0,1,1,1
1002.0,26,1,62,56,60,-1,0,65,-99.0,0,1,1,1
1002.0,26,0,62,56,60,-1,1,70,-99.0,1,1,1,1
1002.0,26,1,62,56,60,-1,1,70,-99.0,1,1,1,1
1002.0,26,0,62,56,60,-1,2,55,-99.0,0,1,1,1
1002.0,26,1,62,56,60,-1,2,55,-99.0,0,1,1,1
1002.0,26,0,62,56,60,-1,3,63,-99.0,0,1,1,1
1002.0,26,1,62,56,60,-1,3,63,-99.0,0,1,1,1
1002.0,26,0,62,56,60,-1,4,41,0.317661,0,0,0,1
1002.0,26,1,62,56,60,-1,4,64,0.334448,1,0,0,1
1002.0,26,0,63,60,48,0,0,48,-99.0,1,1,1,1
1002.0,26,1,63,60,48,0,0,48,-99.0,1,1,1,1
1002.0,26,0,63,60,48,0,1,60,-99.0,0,1,1,1
1002.0,26,1,63,60,48,0,1,60,-99.0,0,1,1,1
1002.0,26,0,63,60,48,0,2,49,-99.0,1,1,1,1
1002.0,26,1,63,60,48,0,2,49,-99.0,1,1,1,1
1002.0,26,0,63,60,48,0,3,63,-99.0,0,1,1,1
1002.0,26,1,63,60,48,0,3,63,-99.0,0,1,1,1
1002.0,26,0,63,60,48,0,4,56,0.367017,0,0,0,1
1002.0,26,1,63,60,48,0,4,56,0.133173,0,0,0,1
1002.0,26,0,64,40,20,0,0,38,-99.0,0,1,1,1
1002.0,26,1,64,40,20,0,0,38,-99.0,0,1,1,1
1002.0,26,0,64,40,20,0,1,20,-99.0,1,1,1,1
1002.0,26,1,64,40,20,0,1,20,-99.0,1,1,1,1
1002.0,26,0,64,40,20,0,2,19,-99.0,1,1,1,1
1002.0,26,1,64,40,20,0,2,19,-99.0,1,1,1,1
1002.0,26,0,64,40,20,0,3,27,-99.0,0,1,1,1
1002.0,26,1,64,40,20,0,3,27,-99.0,0,1,1,1
1002.0,26,0,64,40,20,0,4,41,0.267053,0,0,0,1
1002.0,26,1,64,40,20,0,4,41,0.050406,0,0,0,1
1002.0,26,0,65,40,60,0,0,46,-99.0,0,1,1,6
1002.0,26,1,65,40,60,0,0,46,-99.0,0,1,1,6
1002.0,26,0,65,40,60,0,1,57,-99.0,1,1,1,6
1002.0,26,1,65,40,60,0,1,57,-99.0,1,1,1,6
1002.0,26,0,65,40,60,0,2,38,-99.0,0,1,1,6
1002.0,26,1,65,40,60,0,2,38,-99.0,0,1,1,6
1002.0,26,0,65,40,60,0,3,64,-99.0,1,1,1,6
1002.0,26,1,65,40,60,0,3,64,-99.0,1,1,1,6
1002.0,26,0,65,40,60,0,4,55,0.167233,1,0,0,6
1002.0,26,1,65,40,60,0,4,55,0.0502,1,0,0,6
1002.0,26,0,65,40,60,0,5,38,0.650419,0,0,0,6
1002.0,26,1,65,40,60,0,5,58,0.367021,1,0,0,6
1002.0,26,0,65,40,60,0,6,52,0.150779,1,0,0,6
1002.0,26,1,65,40,60,0,6,52,0.033532,1,0,0,6
1002.0,26,0,65,40,60,0,7,71,0.083958,1,0,0,6
1002.0,26,1,65,40,60,0,7,71,0.333879,1,0,0,6
1002.0,26,0,65,40,60,0,8,57,0.066761,1,0,0,6
1002.0,26,1,65,40,60,0,8,57,0.083824,1,0,0,6
1002.0,26,0,65,40,60,0,9,51,0.033783,1,0,0,6
1002.0,26,1,65,40,60,0,9,51,0.083757,1,0,0,6
1002.0,26,0,66,40,28,-1,0,37,-99.0,0,1,1,6
1002.0,26,1,66,40,28,-1,0,37,-99.0,0,1,1,6
1002.0,26,0,66,40,28,-1,1,26,-99.0,1,1,1,6
1002.0,26,1,66,40,28,-1,1,26,-99.0,1,1,1,6
1002.0,26,0,66,40,28,-1,2,19,-99.0,0,1,1,6
1002.0,26,1,66,40,28,-1,2,19,-99.0,0,1,1,6
1002.0,26,0,66,40,28,-1,3,54,-99.0,0,1,1,6
1002.0,26,1,66,40,28,-1,3,54,-99.0,0,1,1,6
1002.0,26,0,66,40,28,-1,4,31,0.500285,1,0,0,6
1002.0,26,1,66,40,28,-1,4,31,0.250206,1,0,0,6
1002.0,26,0,66,40,28,-1,5,38,0.850195,0,0,0,6
1002.0,26,1,66,40,28,-1,5,38,0.46685,0,0,0,6
1002.0,26,0,66,40,28,-1,6,17,0.25109,1,0,0,6
1002.0,26,1,66,40,28,-1,6,31,0.468309,0,0,0,6
1002.0,26,0,66,40,28,-1,7,46,0.033778,0,0,0,6
1002.0,26,1,66,40,28,-1,7,46,0.249998,0,0,0,6
1002.0,26,0,66,40,28,-1,8,42,0.100698,0,0,0,6
1002.0,26,1,66,40,28,-1,8,42,0.25019,0,0,0,6
1002.0,26,0,66,40,28,-1,9,33,0.183663,0,0,0,6
1002.0,26,1,66,40,28,-1,9,33,0.017092,0,0,0,6
1002.0,26,0,67,28,40,0,0,18,-99.0,0,1,1,1
1002.0,26,1,67,28,40,0,0,18,-99.0,0,1,1,1
1002.0,26,0,67,28,40,0,1,30,-99.0,0,1,1,1
1002.0,26,1,67,28,40,0,1,30,-99.0,0,1,1,1
1002.0,26,0,67,28,40,0,2,36,-99.0,1,1,1,1
1002.0,26,1,67,28,40,0,2,36,-99.0,1,1,1,1
1002.0,26,0,67,28,40,0,3,47,-99.0,1,1,1,1
1002.0,26,1,67,28,40,0,3,47,-99.0,1,1,1,1
1002.0,26,0,67,28,40,0,4,42,2.268539,1,0,0,1
1002.0,26,1,67,28,40,0,4,42,0.200415,1,0,0,1
1002.0,26,0,68,40,36,1,0,40,-99.0,1,1,1,1
1002.0,26,1,68,40,36,1,0,40,-99.0,1,1,1,1
1002.0,26,0,68,40,36,1,1,36,-99.0,1,1,1,1
1002.0,26,1,68,40,36,1,1,36,-99.0,1,1,1,1
1002.0,26,0,68,40,36,1,2,36,-99.0,1,1,1,1
1002.0,26,1,68,40,36,1,2,36,-99.0,1,1,1,1
1002.0,26,0,68,40,36,1,3,25,-99.0,0,1,1,1
1002.0,26,1,68,40,36,1,3,25,-99.0,0,1,1,1
1002.0,26,0,68,40,36,1,4,40,0.433757,1,0,0,1
1002.0,26,1,68,40,36,1,4,40,0.433762,1,0,0,1
1002.0,26,0,69,40,28,1,0,36,-99.0,1,1,1,6
1002.0,26,1,69,40,28,1,0,36,-99.0,1,1,1,6
1002.0,26,0,69,40,28,1,1,11,-99.0,1,1,1,6
1002.0,26,1,69,40,28,1,1,11,-99.0,1,1,1,6
1002.0,26,0,69,40,28,1,2,17,-99.0,1,1,1,6
1002.0,26,1,69,40,28,1,2,17,-99.0,1,1,1,6
1002.0,26,0,69,40,28,1,3,32,-99.0,0,1,1,6
1002.0,26,1,69,40,28,1,3,32,-99.0,0,1,1,6
1002.0,26,0,69,40,28,1,4,47,0.250393,0,0,0,6
1002.0,26,1,69,40,28,1,4,47,1.250139,0,0,0,6
1002.0,26,0,69,40,28,1,5,30,0.183883,0,0,0,6
1002.0,26,1,69,40,28,1,5,30,0.067091,0,0,0,6
1002.0,26,0,69,40,28,1,6,34,0.051101,1,0,0,6
1002.0,26,1,69,40,28,1,6,28,0.033916,0,0,0,6
1002.0,26,0,69,40,28,1,7,41,0.217118,0,0,0,6
